# Averages over distance (i) for each depth (k):
# Depth(m) Speed(m/s) Density(kg/m^3) Salt PSU Theta(degC)
0.00 1535.8906 1024.4046 36.3880 24.9606
10.00 1536.0322 1024.4524 36.3888 24.9482
20.00 1536.1499 1024.5041 36.3906 24.9251
30.00 1536.1917 1024.5677 36.3948 24.8692
40.00 1536.1017 1024.6501 36.4012 24.7572
50.00 1535.8635 1024.7507 36.4074 24.5841
60.00 1535.5279 1024.8597 36.4098 24.3733
70.00 1535.1475 1024.9689 36.4072 24.1480
80.00 1534.7438 1025.0758 36.3998 23.9170
90.00 1534.3323 1025.1786 36.3877 23.6866
100.00 1533.9296 1025.2755 36.3710 23.4635
110.00 1533.5511 1025.3651 36.3503 23.2534
120.00 1533.2003 1025.4478 36.3262 23.0572
130.00 1532.8662 1025.5252 36.2992 22.8702
140.00 1532.5346 1025.5992 36.2691 22.6865
150.00 1532.1760 1025.6705 36.2335 22.4962
160.00 1531.7618 1025.7418 36.1915 22.2885
170.00 1531.3027 1025.8129 36.1443 22.0666
180.00 1530.6531 1025.8880 36.0803 21.7825
190.00 1529.9433 1025.9645 36.0110 21.4788
200.00 1529.0085 1026.0502 35.9293 21.1020
210.00 1527.8715 1026.1444 35.8365 20.6593
220.00 1526.7344 1026.2385 35.7436 20.2166
230.00 1525.1723 1026.3539 35.6405 19.6442
240.00 1523.4521 1026.4772 35.5337 19.0236
250.00 1521.7320 1026.6006 35.4268 18.4030
260.00 1519.9239 1026.7274 35.3233 17.7632
270.00 1517.8560 1026.8649 35.2293 17.0665
280.00 1515.7882 1027.0023 35.1353 16.3699
290.00 1513.7203 1027.1397 35.0414 15.6733
300.00 1511.6534 1027.2771 34.9476 14.9773
310.00 1509.7196 1027.4026 34.8857 14.3643
320.00 1507.7858 1027.5282 34.8238 13.7513
330.00 1505.8519 1027.6538 34.7619 13.1383
340.00 1503.9181 1027.7793 34.7000 12.5253
350.00 1501.9843 1027.9049 34.6381 11.9123
360.00 1500.5597 1028.0075 34.6067 11.4725
370.00 1499.1722 1028.1084 34.5776 11.0452
380.00 1497.7847 1028.2093 34.5485 10.6180
390.00 1496.3973 1028.3103 34.5193 10.1908
400.00 1495.0098 1028.4112 34.4902 9.7635
410.00 1493.6266 1028.5119 34.4612 9.3376
420.00 1492.8444 1028.5915 34.4525 9.0872
430.00 1492.0621 1028.6711 34.4438 8.8369
440.00 1491.2799 1028.7507 34.4350 8.5866
450.00 1490.4977 1028.8303 34.4263 8.3363
460.00 1489.7154 1028.9099 34.4176 8.0860
470.00 1488.9332 1028.9895 34.4088 7.8357
480.00 1488.2510 1029.0658 34.4022 7.6126
490.00 1487.8640 1029.1327 34.4016 7.4699
500.00 1487.4770 1029.1995 34.4011 7.3272
510.00 1487.0901 1029.2663 34.4005 7.1846
520.00 1486.7031 1029.3331 34.4000 7.0419
530.00 1486.3161 1029.4000 34.3994 6.8992
540.00 1485.9292 1029.4668 34.3989 6.7565
550.00 1485.5422 1029.5336 34.3984 6.6138
560.00 1485.3187 1029.5953 34.3999 6.5139
570.00 1485.1559 1029.6550 34.4021 6.4298
580.00 1484.9932 1029.7147 34.4044 6.3458
590.00 1484.8304 1029.7745 34.4067 6.2617
600.00 1484.6677 1029.8342 34.4089 6.1776
610.00 1484.5049 1029.8940 34.4112 6.0936
620.00 1484.3421 1029.9537 34.4135 6.0095
630.00 1484.1794 1030.0134 34.4158 5.9255
640.00 1484.0764 1030.0712 34.4184 5.8567
650.00 1484.0271 1030.1272 34.4215 5.8017
660.00 1483.9778 1030.1833 34.4245 5.7467
670.00 1483.9285 1030.2393 34.4275 5.6917
680.00 1483.8792 1030.2954 34.4306 5.6367
690.00 1483.8299 1030.3514 34.4336 5.5817
700.00 1483.7806 1030.4074 34.4366 5.5267
710.00 1483.7313 1030.4635 34.4397 5.4717
720.00 1483.6820 1030.5195 34.4427 5.4167
730.00 1483.6608 1030.5743 34.4456 5.3691
740.00 1483.6484 1030.6288 34.4484 5.3238
750.00 1483.6360 1030.6832 34.4512 5.2785
760.00 1483.6236 1030.7377 34.4541 5.2332
770.00 1483.6112 1030.7921 34.4569 5.1878
780.00 1483.5988 1030.8466 34.4597 5.1425
790.00 1483.5863 1030.9010 34.4625 5.0972
800.00 1483.5739 1030.9555 34.4654 5.0519
810.00 1483.5615 1031.0099 34.4682 5.0066
820.00 1483.5554 1031.0639 34.4708 4.9631
830.00 1483.5543 1031.1175 34.4732 4.9211
840.00 1483.5532 1031.1712 34.4757 4.8790
850.00 1483.5520 1031.2248 34.4781 4.8370
860.00 1483.5509 1031.2784 34.4805 4.7950
870.00 1483.5498 1031.3320 34.4830 4.7529
880.00 1483.5487 1031.3856 34.4854 4.7109
890.00 1483.5476 1031.4393 34.4878 4.6689
900.00 1483.5465 1031.4929 34.4903 4.6269
910.00 1483.5457 1031.5465 34.4927 4.5849
920.00 1483.5576 1031.5993 34.4948 4.5465
930.00 1483.5696 1031.6522 34.4970 4.5080
940.00 1483.5815 1031.7050 34.4991 4.4696
950.00 1483.5934 1031.7579 34.5012 4.4311
960.00 1483.6053 1031.8107 34.5034 4.3927
970.00 1483.6172 1031.8636 34.5055 4.3542
980.00 1483.6291 1031.9164 34.5076 4.3158
990.00 1483.6411 1031.9693 34.5098 4.2773
1000.00 1483.6530 1032.0221 34.5119 4.2389
1010.00 1483.6694 1032.0748 34.5140 4.2016
1020.00 1483.6972 1032.1269 34.5159 4.1673
1030.00 1483.7249 1032.1790 34.5178 4.1329
1040.00 1483.7527 1032.2310 34.5197 4.0986
1050.00 1483.7805 1032.2831 34.5217 4.0643
1060.00 1483.8082 1032.3352 34.5236 4.0299
1070.00 1483.8360 1032.3873 34.5255 3.9956
1080.00 1483.8638 1032.4394 34.5274 3.9613
1090.00 1483.8915 1032.4915 34.5293 3.9269
1100.00 1483.9193 1032.5436 34.5313 3.8926
1110.00 1483.9533 1032.5954 34.5331 3.8598
1120.00 1483.9963 1032.6468 34.5348 3.8294
1130.00 1484.0394 1032.6982 34.5366 3.7989
1140.00 1484.0824 1032.7496 34.5383 3.7684
1150.00 1484.1254 1032.8010 34.5400 3.7380
1160.00 1484.1684 1032.8525 34.5418 3.7075
1170.00 1484.2114 1032.9039 34.5435 3.6770
1180.00 1484.2545 1032.9553 34.5453 3.6465
1190.00 1484.2975 1033.0067 34.5470 3.6161
1200.00 1484.3405 1033.0581 34.5487 3.5856
1210.00 1484.3889 1033.1092 34.5504 3.5565
1220.00 1484.4441 1033.1601 34.5519 3.5291
1230.00 1484.4993 1033.2109 34.5535 3.5016
1240.00 1484.5545 1033.2618 34.5550 3.4742
1250.00 1484.6096 1033.3126 34.5566 3.4468
1260.00 1484.6648 1033.3634 34.5582 3.4194
1270.00 1484.7200 1033.4143 34.5597 3.3919
1280.00 1484.7752 1033.4651 34.5613 3.3645
1290.00 1484.8304 1033.5160 34.5628 3.3371
1300.00 1484.8855 1033.5668 34.5644 3.3097
1310.00 1484.9441 1033.6175 34.5659 3.2831
1320.00 1485.0081 1033.6679 34.5673 3.2579
1330.00 1485.0720 1033.7183 34.5686 3.2326
1340.00 1485.1360 1033.7687 34.5700 3.2074
1350.00 1485.2000 1033.8191 34.5714 3.1822
1360.00 1485.2640 1033.8695 34.5728 3.1570
1370.00 1485.3280 1033.9199 34.5742 3.1318
1380.00 1485.3920 1033.9703 34.5756 3.1065
1390.00 1485.4560 1034.0207 34.5770 3.0813
1400.00 1485.5200 1034.0711 34.5784 3.0561
1410.00 1485.5846 1034.1215 34.5797 3.0310
1420.00 1485.6556 1034.1715 34.5810 3.0075
1430.00 1485.7266 1034.2215 34.5822 2.9841
1440.00 1485.7977 1034.2716 34.5835 2.9606
1450.00 1485.8687 1034.3216 34.5847 2.9371
1460.00 1485.9397 1034.3716 34.5860 2.9136
1470.00 1486.0108 1034.4217 34.5872 2.8902
1480.00 1486.0818 1034.4717 34.5885 2.8667
1490.00 1486.1529 1034.5217 34.5897 2.8432
1500.00 1486.2239 1034.5718 34.5910 2.8197
1510.00 1486.2949 1034.6218 34.5922 2.7962
1520.00 1486.3684 1034.6717 34.5934 2.7733
1530.00 1486.4477 1034.7214 34.5946 2.7519
1540.00 1486.5270 1034.7711 34.5957 2.7304
1550.00 1486.6064 1034.8207 34.5969 2.7089
1560.00 1486.6857 1034.8704 34.5980 2.6874
1570.00 1486.7651 1034.9201 34.5992 2.6659
1580.00 1486.8444 1034.9697 34.6003 2.6444
1590.00 1486.9237 1035.0194 34.6015 2.6229
1600.00 1487.0031 1035.0691 34.6026 2.6014
1610.00 1487.0824 1035.1187 34.6038 2.5799
1620.00 1487.1617 1035.1684 34.6049 2.5585
1630.00 1487.2411 1035.2180 34.6061 2.5370
1640.00 1487.3279 1035.2674 34.6072 2.5172
1650.00 1487.4201 1035.3166 34.6083 2.4987
1660.00 1487.5123 1035.3658 34.6093 2.4802
1670.00 1487.6045 1035.4150 34.6104 2.4617
1680.00 1487.6967 1035.4642 34.6115 2.4431
1690.00 1487.7889 1035.5134 34.6126 2.4246
1700.00 1487.8812 1035.5626 34.6137 2.4061
1710.00 1487.9734 1035.6118 34.6147 2.3876
1720.00 1488.0656 1035.6610 34.6158 2.3691
1730.00 1488.1578 1035.7102 34.6169 2.3506
1740.00 1488.2500 1035.7594 34.6180 2.3320
1750.00 1488.3422 1035.8086 34.6191 2.3135
1760.00 1488.4344 1035.8578 34.6201 2.2950
1770.00 1488.5352 1035.9067 34.6212 2.2784
1780.00 1488.6451 1035.9553 34.6221 2.2639
1790.00 1488.7550 1036.0038 34.6231 2.2494
1800.00 1488.8650 1036.0524 34.6241 2.2349
1810.00 1488.9749 1036.1010 34.6251 2.2204
1820.00 1489.0848 1036.1495 34.6260 2.2059
1830.00 1489.1947 1036.1981 34.6270 2.1914
1840.00 1489.3046 1036.2466 34.6280 2.1769
1850.00 1489.4145 1036.2952 34.6289 2.1624
1860.00 1489.5244 1036.3437 34.6299 2.1479
1870.00 1489.6343 1036.3923 34.6309 2.1334
1880.00 1489.7442 1036.4409 34.6319 2.1189
1890.00 1489.8541 1036.4894 34.6328 2.1044
1900.00 1489.9640 1036.5380 34.6338 2.0899
1910.00 1490.0740 1036.5865 34.6348 2.0754
1920.00 1490.1955 1036.6346 34.6356 2.0635
1930.00 1490.3254 1036.6824 34.6364 2.0534
1940.00 1490.4552 1036.7302 34.6372 2.0434
1950.00 1490.5850 1036.7779 34.6380 2.0333
1960.00 1490.7149 1036.8257 34.6388 2.0233
1970.00 1490.8447 1036.8735 34.6395 2.0132
1980.00 1490.9745 1036.9212 34.6403 2.0032
1990.00 1491.1044 1036.9690 34.6411 1.9931
2000.00 1491.2342 1037.0168 34.6419 1.9831
2010.00 1491.3641 1037.0646 34.6427 1.9730
2020.00 1491.4939 1037.1123 34.6434 1.9630
2030.00 1491.6237 1037.1601 34.6442 1.9529
2040.00 1491.7536 1037.2079 34.6450 1.9429
2050.00 1491.8834 1037.2556 34.6458 1.9328
2060.00 1492.0132 1037.3034 34.6466 1.9228
2070.00 1492.1431 1037.3512 34.6474 1.9128
2080.00 1492.2729 1037.3989 34.6481 1.9027
2090.00 1492.4127 1037.4463 34.6488 1.8948
2100.00 1492.5591 1037.4933 34.6494 1.8884
2110.00 1492.7056 1037.5404 34.6499 1.8820
2120.00 1492.8521 1037.5874 34.6505 1.8756
2130.00 1492.9986 1037.6344 34.6511 1.8692
2140.00 1493.1450 1037.6815 34.6517 1.8629
2150.00 1493.2915 1037.7285 34.6522 1.8565
2160.00 1493.4380 1037.7756 34.6528 1.8501
2170.00 1493.5844 1037.8226 34.6534 1.8437
2180.00 1493.7309 1037.8696 34.6539 1.8373
2190.00 1493.8774 1037.9167 34.6545 1.8309
2200.00 1494.0239 1037.9637 34.6551 1.8245
2210.00 1494.1703 1038.0108 34.6557 1.8181
2220.00 1494.3168 1038.0578 34.6562 1.8117
2230.00 1494.4633 1038.1048 34.6568 1.8053
2240.00 1494.6098 1038.1519 34.6574 1.7989
2250.00 1494.7562 1038.1989 34.6580 1.7925
2260.00 1494.9027 1038.2460 34.6585 1.7861
2270.00 1495.0492 1038.2930 34.6591 1.7797
2280.00 1495.1994 1038.3398 34.6596 1.7741
2290.00 1495.3557 1038.3864 34.6600 1.7697
2300.00 1495.5120 1038.4329 34.6605 1.7654
2310.00 1495.6683 1038.4794 34.6609 1.7611
2320.00 1495.8246 1038.5259 34.6613 1.7567
2330.00 1495.9809 1038.5725 34.6617 1.7524
2340.00 1496.1372 1038.6190 34.6621 1.7481
2350.00 1496.2935 1038.6655 34.6626 1.7437
2360.00 1496.4498 1038.7120 34.6630 1.7394
2370.00 1496.6061 1038.7586 34.6634 1.7351
2380.00 1496.7624 1038.8051 34.6638 1.7307
2390.00 1496.9187 1038.8516 34.6643 1.7264
2400.00 1497.0750 1038.8982 34.6647 1.7221
2410.00 1497.2313 1038.9447 34.6651 1.7177
2420.00 1497.3876 1038.9912 34.6655 1.7134
2430.00 1497.5439 1039.0377 34.6659 1.7090
2440.00 1497.7002 1039.0843 34.6664 1.7047
2450.00 1497.8565 1039.1308 34.6668 1.7004
2460.00 1498.0128 1039.1773 34.6672 1.6960
2470.00 1498.1691 1039.2238 34.6676 1.6917
2480.00 1498.3254 1039.2704 34.6681 1.6874
2490.00 1498.4817 1039.3169 34.6685 1.6830
2500.00 1498.6423 1039.3631 34.6688 1.6795
2510.00 1498.8035 1039.4093 34.6691 1.6761
2520.00 1498.9647 1039.4554 34.6694 1.6727
2530.00 1499.1260 1039.5016 34.6697 1.6693
2540.00 1499.2872 1039.5478 34.6701 1.6658
2550.00 1499.4484 1039.5939 34.6704 1.6624
2560.00 1499.6097 1039.6401 34.6707 1.6590
2570.00 1499.7709 1039.6863 34.6710 1.6556
2580.00 1499.9321 1039.7324 34.6713 1.6522
2590.00 1500.0934 1039.7786 34.6716 1.6488
2600.00 1500.2546 1039.8248 34.6719 1.6454
2610.00 1500.4158 1039.8710 34.6722 1.6420
2620.00 1500.5770 1039.9171 34.6725 1.6385
2630.00 1500.7383 1039.9633 34.6729 1.6351
2640.00 1500.8995 1040.0095 34.6732 1.6317
2650.00 1501.0607 1040.0556 34.6735 1.6283
2660.00 1501.2220 1040.1018 34.6738 1.6249
2670.00 1501.3832 1040.1480 34.6741 1.6215
2680.00 1501.5444 1040.1941 34.6744 1.6181
2690.00 1501.7057 1040.2403 34.6747 1.6146
2700.00 1501.8669 1040.2865 34.6750 1.6112
2710.00 1502.0281 1040.3326 34.6753 1.6078
2720.00 1502.1894 1040.3788 34.6757 1.6044
2730.00 1502.3507 1040.4250 34.6760 1.6010
2740.00 1502.5138 1040.4708 34.6761 1.5978
2750.00 1502.6769 1040.5167 34.6763 1.5946
2760.00 1502.8400 1040.5626 34.6765 1.5914
2770.00 1503.0031 1040.6085 34.6767 1.5882
2780.00 1503.1662 1040.6543 34.6769 1.5850
2790.00 1503.3292 1040.7002 34.6770 1.5818
2800.00 1503.4923 1040.7461 34.6772 1.5786
2810.00 1503.6554 1040.7920 34.6774 1.5755
2820.00 1503.8185 1040.8378 34.6776 1.5723
2830.00 1503.9816 1040.8837 34.6778 1.5691
2840.00 1504.1447 1040.9296 34.6779 1.5659
2850.00 1504.3077 1040.9754 34.6781 1.5627
2860.00 1504.4708 1041.0213 34.6783 1.5595
2870.00 1504.6339 1041.0672 34.6785 1.5563
2880.00 1504.7970 1041.1131 34.6787 1.5531
2890.00 1504.9601 1041.1589 34.6788 1.5499
2900.00 1505.1232 1041.2048 34.6790 1.5467
2910.00 1505.2863 1041.2507 34.6792 1.5435
2920.00 1505.4493 1041.2966 34.6794 1.5403
2930.00 1505.6124 1041.3424 34.6796 1.5371
2940.00 1505.7755 1041.3883 34.6798 1.5339
2950.00 1505.9386 1041.4342 34.6799 1.5307
2960.00 1506.1017 1041.4801 34.6801 1.5275
2970.00 1506.2648 1041.5259 34.6803 1.5243
2980.00 1506.4279 1041.5718 34.6805 1.5211
2990.00 1506.5909 1041.6177 34.6807 1.5180
3000.00 1506.7561 1041.6633 34.6808 1.5150
3010.00 1506.9214 1041.7089 34.6809 1.5121
3020.00 1507.0867 1041.7545 34.6810 1.5091
3030.00 1507.2519 1041.8001 34.6811 1.5062
3040.00 1507.4172 1041.8458 34.6812 1.5032
3050.00 1507.5824 1041.8914 34.6814 1.5003
3060.00 1507.7477 1041.9370 34.6815 1.4973
3070.00 1507.9130 1041.9826 34.6816 1.4944
3080.00 1508.0782 1042.0282 34.6817 1.4914
3090.00 1508.2435 1042.0738 34.6818 1.4885
3100.00 1508.4087 1042.1194 34.6820 1.4856
3110.00 1508.5740 1042.1650 34.6821 1.4826
3120.00 1508.7393 1042.2107 34.6822 1.4797
3130.00 1508.9045 1042.2563 34.6823 1.4767
3140.00 1509.0698 1042.3019 34.6824 1.4738
3150.00 1509.2350 1042.3475 34.6826 1.4708
3160.00 1509.4003 1042.3931 34.6827 1.4679
3170.00 1509.5656 1042.4387 34.6828 1.4649
3180.00 1509.7308 1042.4843 34.6829 1.4620
3190.00 1509.8961 1042.5299 34.6830 1.4590
3200.00 1510.0613 1042.5756 34.6831 1.4561
3210.00 1510.2266 1042.6212 34.6833 1.4532
3220.00 1510.3919 1042.6668 34.6834 1.4502
3230.00 1510.5571 1042.7124 34.6835 1.4473
3240.00 1510.7224 1042.7580 34.6836 1.4443
3250.00 1510.8876 1042.8036 34.6837 1.4414
3260.00 1511.0529 1042.8492 34.6839 1.4384
3270.00 1511.2182 1042.8948 34.6840 1.4355
3280.00 1511.3882 1042.9402 34.6841 1.4335
3290.00 1511.5618 1042.9853 34.6841 1.4321
3300.00 1511.7353 1043.0304 34.6842 1.4308
3310.00 1511.9089 1043.0755 34.6842 1.4294
3320.00 1512.0825 1043.1206 34.6843 1.4281
3330.00 1512.2561 1043.1657 34.6844 1.4267
3340.00 1512.4296 1043.2108 34.6844 1.4254
3350.00 1512.6032 1043.2559 34.6845 1.4240
3360.00 1512.7768 1043.3011 34.6845 1.4227
3370.00 1512.9504 1043.3462 34.6846 1.4214
3380.00 1513.1239 1043.3913 34.6846 1.4200
3390.00 1513.2975 1043.4364 34.6847 1.4187
3400.00 1513.4711 1043.4815 34.6848 1.4173
3410.00 1513.6447 1043.5266 34.6848 1.4160
3420.00 1513.8182 1043.5717 34.6849 1.4146
3430.00 1513.9918 1043.6168 34.6849 1.4133
3440.00 1514.1654 1043.6619 34.6850 1.4119
3450.00 1514.3390 1043.7071 34.6851 1.4106
3460.00 1514.5125 1043.7522 34.6851 1.4093
3470.00 1514.6861 1043.7973 34.6852 1.4079
3480.00 1514.8597 1043.8424 34.6852 1.4066
3490.00 1515.0332 1043.8875 34.6853 1.4052
3500.00 1515.2068 1043.9326 34.6854 1.4039
3510.00 1515.3804 1043.9777 34.6854 1.4025
3520.00 1515.5540 1044.0228 34.6855 1.4012
3530.00 1515.7275 1044.0679 34.6855 1.3998
3540.00 1515.9011 1044.1131 34.6856 1.3985
3550.00 1516.0747 1044.1582 34.6856 1.3971
3560.00 1516.2483 1044.2033 34.6857 1.3958
3570.00 1516.4218 1044.2484 34.6858 1.3945
3580.00 1516.5954 1044.2935 34.6858 1.3931
3590.00 1516.6586 1044.3437 34.6870 1.3663
3600.00 1516.8394 1044.3883 34.6870 1.3663
3610.00 1517.0201 1044.4329 34.6870 1.3663
3620.00 1517.2009 1044.4775 34.6870 1.3663
3630.00 1517.3817 1044.5222 34.6870 1.3663
3640.00 1517.5625 1044.5668 34.6870 1.3663
3650.00 1517.7433 1044.6114 34.6870 1.3663
3660.00 1517.9241 1044.6560 34.6870 1.3663
3670.00 1518.1049 1044.7006 34.6870 1.3663
3680.00 1518.2857 1044.7452 34.6870 1.3663
3690.00 1518.4665 1044.7898 34.6870 1.3663
3700.00 1518.6473 1044.8344 34.6870 1.3663
3710.00 1518.8281 1044.8790 34.6870 1.3663
3720.00 1519.0089 1044.9236 34.6870 1.3663
3730.00 1519.1897 1044.9683 34.6870 1.3663
3740.00 1519.3705 1045.0129 34.6870 1.3663
3750.00 1519.5512 1045.0575 34.6870 1.3663
3760.00 1519.7320 1045.1021 34.6870 1.3663
3770.00 1519.9128 1045.1467 34.6870 1.3663
3780.00 1520.0936 1045.1913 34.6870 1.3663
3790.00 1520.2744 1045.2359 34.6870 1.3663
3800.00 1520.4552 1045.2805 34.6870 1.3663
3810.00 1520.6360 1045.3251 34.6870 1.3663
3820.00 1520.8168 1045.3697 34.6870 1.3663
3830.00 1520.9976 1045.4144 34.6870 1.3663
3840.00 1521.1784 1045.4590 34.6870 1.3663
3850.00 1521.3592 1045.5036 34.6870 1.3663
3860.00 1521.5400 1045.5482 34.6870 1.3663
3870.00 1521.7208 1045.5928 34.6870 1.3663
3880.00 1521.9016 1045.6374 34.6870 1.3663
3890.00 1522.0823 1045.6820 34.6870 1.3663
3900.00 1522.2631 1045.7266 34.6870 1.3663
3910.00 1522.4439 1045.7712 34.6870 1.3663
3920.00 nan nan nan nan
3930.00 nan nan nan nan
3940.00 nan nan nan nan
3950.00 nan nan nan nan
3960.00 nan nan nan nan
3970.00 nan nan nan nan
3980.00 nan nan nan nan
3990.00 nan nan nan nan
4000.00 nan nan nan nan
4010.00 nan nan nan nan
4020.00 nan nan nan nan
4030.00 nan nan nan nan
4040.00 nan nan nan nan
4050.00 nan nan nan nan
4060.00 nan nan nan nan
4070.00 nan nan nan nan
4080.00 nan nan nan nan
4090.00 nan nan nan nan
4100.00 nan nan nan nan
4110.00 nan nan nan nan
4120.00 nan nan nan nan
4130.00 nan nan nan nan
4140.00 nan nan nan nan
4150.00 nan nan nan nan
4160.00 nan nan nan nan
4170.00 nan nan nan nan
4180.00 nan nan nan nan
4190.00 nan nan nan nan
4200.00 nan nan nan nan
4210.00 nan nan nan nan
4220.00 nan nan nan nan
4230.00 nan nan nan nan
4240.00 nan nan nan nan
4250.00 nan nan nan nan
4260.00 nan nan nan nan
4270.00 nan nan nan nan
4280.00 nan nan nan nan
4290.00 nan nan nan nan
4300.00 nan nan nan nan
4310.00 nan nan nan nan
4320.00 nan nan nan nan
4330.00 nan nan nan nan
4340.00 nan nan nan nan
4350.00 nan nan nan nan
4360.00 nan nan nan nan
4370.00 nan nan nan nan
4380.00 nan nan nan nan
4390.00 nan nan nan nan
4400.00 nan nan nan nan
4410.00 nan nan nan nan
4420.00 nan nan nan nan
4430.00 nan nan nan nan
4440.00 nan nan nan nan
4450.00 nan nan nan nan
4460.00 nan nan nan nan
4470.00 nan nan nan nan
4480.00 nan nan nan nan
4490.00 nan nan nan nan
4500.00 nan nan nan nan
4510.00 nan nan nan nan
4520.00 nan nan nan nan
4530.00 nan nan nan nan
4540.00 nan nan nan nan
4550.00 nan nan nan nan
4560.00 nan nan nan nan
4570.00 nan nan nan nan
4580.00 nan nan nan nan
4590.00 nan nan nan nan
4600.00 nan nan nan nan
4610.00 nan nan nan nan
4620.00 nan nan nan nan
4630.00 nan nan nan nan
4640.00 nan nan nan nan
4650.00 nan nan nan nan
4660.00 nan nan nan nan
4670.00 nan nan nan nan
4680.00 nan nan nan nan
4690.00 nan nan nan nan
4700.00 nan nan nan nan
4710.00 nan nan nan nan
4720.00 nan nan nan nan
4730.00 nan nan nan nan
4740.00 nan nan nan nan
4750.00 nan nan nan nan
4760.00 nan nan nan nan
4770.00 nan nan nan nan
4780.00 nan nan nan nan
4790.00 nan nan nan nan
4800.00 nan nan nan nan
4810.00 nan nan nan nan
4820.00 nan nan nan nan
4830.00 nan nan nan nan
4840.00 nan nan nan nan
4850.00 nan nan nan nan
4860.00 nan nan nan nan
4870.00 nan nan nan nan
4880.00 nan nan nan nan
4890.00 nan nan nan nan
4900.00 nan nan nan nan
4910.00 nan nan nan nan
4920.00 nan nan nan nan
4930.00 nan nan nan nan
4940.00 nan nan nan nan
4950.00 nan nan nan nan
4960.00 nan nan nan nan
4970.00 nan nan nan nan
4980.00 nan nan nan nan
4990.00 nan nan nan nan
5000.00 nan nan nan nan
5010.00 nan nan nan nan
5020.00 nan nan nan nan
5030.00 nan nan nan nan
5040.00 nan nan nan nan
5050.00 nan nan nan nan
5060.00 nan nan nan nan
5070.00 nan nan nan nan
5080.00 nan nan nan nan
5090.00 nan nan nan nan
5100.00 nan nan nan nan
5110.00 nan nan nan nan
5120.00 nan nan nan nan
5130.00 nan nan nan nan
5140.00 nan nan nan nan
5150.00 nan nan nan nan
5160.00 nan nan nan nan
5170.00 nan nan nan nan
5180.00 nan nan nan nan
5190.00 nan nan nan nan
5200.00 nan nan nan nan
5210.00 nan nan nan nan
5220.00 nan nan nan nan
5230.00 nan nan nan nan
5240.00 nan nan nan nan
5250.00 nan nan nan nan
5260.00 nan nan nan nan
5270.00 nan nan nan nan
5280.00 nan nan nan nan
5290.00 nan nan nan nan
5300.00 nan nan nan nan
5310.00 nan nan nan nan
5320.00 nan nan nan nan
5330.00 nan nan nan nan
5340.00 nan nan nan nan
5350.00 nan nan nan nan
5360.00 nan nan nan nan
5370.00 nan nan nan nan
5380.00 nan nan nan nan
5390.00 nan nan nan nan
5400.00 nan nan nan nan
5410.00 nan nan nan nan
5420.00 nan nan nan nan
5430.00 nan nan nan nan
5440.00 nan nan nan nan
5450.00 nan nan nan nan
5460.00 nan nan nan nan
5470.00 nan nan nan nan
5480.00 nan nan nan nan
5490.00 nan nan nan nan
5500.00 nan nan nan nan
5510.00 nan nan nan nan
5520.00 nan nan nan nan
5530.00 nan nan nan nan
5540.00 nan nan nan nan
5550.00 nan nan nan nan
5560.00 nan nan nan nan
5570.00 nan nan nan nan
5580.00 nan nan nan nan
5590.00 nan nan nan nan
5600.00 nan nan nan nan
5610.00 nan nan nan nan
5620.00 nan nan nan nan
5630.00 nan nan nan nan
5640.00 nan nan nan nan
5650.00 nan nan nan nan
5660.00 nan nan nan nan
5670.00 nan nan nan nan
5680.00 nan nan nan nan
5690.00 nan nan nan nan
5700.00 nan nan nan nan
5710.00 nan nan nan nan
5720.00 nan nan nan nan
5730.00 nan nan nan nan
5740.00 nan nan nan nan
5750.00 nan nan nan nan
5760.00 nan nan nan nan
5770.00 nan nan nan nan
5780.00 nan nan nan nan
5790.00 nan nan nan nan
5800.00 nan nan nan nan
5810.00 nan nan nan nan
5820.00 nan nan nan nan
5830.00 nan nan nan nan
5840.00 nan nan nan nan
5850.00 nan nan nan nan
5860.00 nan nan nan nan
5870.00 nan nan nan nan
5880.00 nan nan nan nan
5890.00 nan nan nan nan
5900.00 nan nan nan nan
5910.00 nan nan nan nan
5920.00 nan nan nan nan
5930.00 nan nan nan nan
5940.00 nan nan nan nan
5950.00 nan nan nan nan
5960.00 nan nan nan nan
5970.00 nan nan nan nan
5980.00 nan nan nan nan
5990.00 nan nan nan nan
6000.00 nan nan nan nan
6010.00 nan nan nan nan
6020.00 nan nan nan nan
6030.00 nan nan nan nan
6040.00 nan nan nan nan
6050.00 nan nan nan nan
6060.00 nan nan nan nan
6070.00 nan nan nan nan
6080.00 nan nan nan nan
6090.00 nan nan nan nan
6100.00 nan nan nan nan
6110.00 nan nan nan nan
6120.00 nan nan nan nan
6130.00 nan nan nan nan
6140.00 nan nan nan nan
6150.00 nan nan nan nan
6160.00 nan nan nan nan
6170.00 nan nan nan nan
6180.00 nan nan nan nan
6190.00 nan nan nan nan
6200.00 nan nan nan nan
6210.00 nan nan nan nan
6220.00 nan nan nan nan
6230.00 nan nan nan nan
6240.00 nan nan nan nan
6250.00 nan nan nan nan
6260.00 nan nan nan nan
6270.00 nan nan nan nan
6280.00 nan nan nan nan
6290.00 nan nan nan nan
6300.00 nan nan nan nan
6310.00 nan nan nan nan
6320.00 nan nan nan nan
6330.00 nan nan nan nan
6340.00 nan nan nan nan
6350.00 nan nan nan nan
6360.00 nan nan nan nan
6370.00 nan nan nan nan
6380.00 nan nan nan nan
6390.00 nan nan nan nan
6400.00 nan nan nan nan
6410.00 nan nan nan nan
6420.00 nan nan nan nan
6430.00 nan nan nan nan
6440.00 nan nan nan nan
6450.00 nan nan nan nan
6460.00 nan nan nan nan
6470.00 nan nan nan nan
6480.00 nan nan nan nan
6490.00 nan nan nan nan
6500.00 nan nan nan nan
6510.00 nan nan nan nan
6520.00 nan nan nan nan
6530.00 nan nan nan nan
6540.00 nan nan nan nan
6550.00 nan nan nan nan
6560.00 nan nan nan nan
6570.00 nan nan nan nan
6580.00 nan nan nan nan
6590.00 nan nan nan nan
6600.00 nan nan nan nan
6610.00 nan nan nan nan
6620.00 nan nan nan nan
6630.00 nan nan nan nan
6640.00 nan nan nan nan
6650.00 nan nan nan nan
6660.00 nan nan nan nan
6670.00 nan nan nan nan
6680.00 nan nan nan nan
6690.00 nan nan nan nan
6700.00 nan nan nan nan
6710.00 nan nan nan nan
6720.00 nan nan nan nan
6730.00 nan nan nan nan
6740.00 nan nan nan nan
6750.00 nan nan nan nan
6760.00 nan nan nan nan
6770.00 nan nan nan nan
6780.00 nan nan nan nan
6790.00 nan nan nan nan
6800.00 nan nan nan nan
6810.00 nan nan nan nan
6820.00 nan nan nan nan
6830.00 nan nan nan nan
6840.00 nan nan nan nan
6850.00 nan nan nan nan
6860.00 nan nan nan nan
6870.00 nan nan nan nan
6880.00 nan nan nan nan
6890.00 nan nan nan nan
6900.00 nan nan nan nan
6910.00 nan nan nan nan
6920.00 nan nan nan nan
6930.00 nan nan nan nan
6940.00 nan nan nan nan
6950.00 nan nan nan nan
6960.00 nan nan nan nan
6970.00 nan nan nan nan
6980.00 nan nan nan nan
6990.00 nan nan nan nan
7000.00 nan nan nan nan
7010.00 nan nan nan nan
7020.00 nan nan nan nan
7030.00 nan nan nan nan
7040.00 nan nan nan nan
7050.00 nan nan nan nan
7060.00 nan nan nan nan
7070.00 nan nan nan nan
7080.00 nan nan nan nan
7090.00 nan nan nan nan
7100.00 nan nan nan nan
7110.00 nan nan nan nan
7120.00 nan nan nan nan
7130.00 nan nan nan nan
7140.00 nan nan nan nan
7150.00 nan nan nan nan
7160.00 nan nan nan nan
7170.00 nan nan nan nan
7180.00 nan nan nan nan
7190.00 nan nan nan nan
7200.00 nan nan nan nan
7210.00 nan nan nan nan
7220.00 nan nan nan nan
7230.00 nan nan nan nan
7240.00 nan nan nan nan
7250.00 nan nan nan nan
7260.00 nan nan nan nan
7270.00 nan nan nan nan
7280.00 nan nan nan nan
7290.00 nan nan nan nan
7300.00 nan nan nan nan
7310.00 nan nan nan nan
7320.00 nan nan nan nan
7330.00 nan nan nan nan
7340.00 nan nan nan nan
7350.00 nan nan nan nan
7360.00 nan nan nan nan
7370.00 nan nan nan nan
7380.00 nan nan nan nan
7390.00 nan nan nan nan
7400.00 nan nan nan nan
7410.00 nan nan nan nan
7420.00 nan nan nan nan
7430.00 nan nan nan nan
7440.00 nan nan nan nan
7450.00 nan nan nan nan
7460.00 nan nan nan nan
7470.00 nan nan nan nan
7480.00 nan nan nan nan
7490.00 nan nan nan nan
7500.00 nan nan nan nan
7510.00 nan nan nan nan
7520.00 nan nan nan nan
7530.00 nan nan nan nan
7540.00 nan nan nan nan
7550.00 nan nan nan nan
7560.00 nan nan nan nan
7570.00 nan nan nan nan
7580.00 nan nan nan nan
7590.00 nan nan nan nan
7600.00 nan nan nan nan
7610.00 nan nan nan nan
7620.00 nan nan nan nan
7630.00 nan nan nan nan
7640.00 nan nan nan nan
7650.00 nan nan nan nan
7660.00 nan nan nan nan
7670.00 nan nan nan nan
7680.00 nan nan nan nan
7690.00 nan nan nan nan
7700.00 nan nan nan nan
7710.00 nan nan nan nan
7720.00 nan nan nan nan
7730.00 nan nan nan nan
7740.00 nan nan nan nan
7750.00 nan nan nan nan
7760.00 nan nan nan nan
7770.00 nan nan nan nan
7780.00 nan nan nan nan
7790.00 nan nan nan nan
7800.00 nan nan nan nan
7810.00 nan nan nan nan
7820.00 nan nan nan nan
7830.00 nan nan nan nan
7840.00 nan nan nan nan
7850.00 nan nan nan nan
7860.00 nan nan nan nan
7870.00 nan nan nan nan
7880.00 nan nan nan nan
7890.00 nan nan nan nan
7900.00 nan nan nan nan
7910.00 nan nan nan nan
7920.00 nan nan nan nan
7930.00 nan nan nan nan
7940.00 nan nan nan nan
7950.00 nan nan nan nan
7960.00 nan nan nan nan
7970.00 nan nan nan nan
7980.00 nan nan nan nan
7990.00 nan nan nan nan
