# Averages over distance (i) for each depth (k):
# Depth(m) Speed(m/s) Density(kg/m^3) Salt PSU Theta(degC)
0.00 1511.9138 1024.9913 34.3033 16.9700
10.00 1511.9895 1025.0418 34.3018 16.9393
20.00 1511.9169 1025.1020 34.2981 16.8603
30.00 1511.4631 1025.1863 34.2882 16.6582
40.00 1510.5269 1025.3000 34.2709 16.3024
50.00 1509.1911 1025.4365 34.2481 15.8232
60.00 1507.6557 1025.5815 34.2224 15.2875
70.00 1506.1051 1025.7232 34.1967 14.7545
80.00 1504.6641 1025.8545 34.1718 14.2625
90.00 1503.3818 1025.9725 34.1474 13.8252
100.00 1502.2480 1026.0783 34.1227 13.4381
110.00 1501.2333 1026.1753 34.0985 13.0904
120.00 1500.2898 1026.2681 34.0764 12.7663
130.00 1499.3530 1026.3616 34.0573 12.4458
140.00 1498.3885 1026.4590 34.0424 12.1180
150.00 1497.4345 1026.5656 34.0414 11.7918
160.00 1496.5380 1026.6785 34.0529 11.4799
170.00 1495.6880 1026.7964 34.0745 11.1795
180.00 1494.9752 1026.9185 34.1113 10.9156
190.00 1494.3057 1027.0420 34.1530 10.6633
200.00 1493.7291 1027.1623 34.1974 10.4377
210.00 1493.2359 1027.2797 34.2442 10.2362
220.00 1492.7427 1027.3972 34.2911 10.0347
230.00 1492.3039 1027.5028 34.3282 9.8538
240.00 1491.8853 1027.6041 34.3618 9.6805
250.00 1491.4666 1027.7055 34.3953 9.5072
260.00 1491.0434 1027.8016 34.4228 9.3354
270.00 1490.6067 1027.8826 34.4328 9.1684
280.00 1490.1700 1027.9636 34.4427 9.0013
290.00 1489.7333 1028.0446 34.4526 8.8342
300.00 1489.2963 1028.1254 34.4624 8.6671
310.00 1488.8270 1028.1927 34.4561 8.5002
320.00 1488.3576 1028.2599 34.4499 8.3334
330.00 1487.8883 1028.3271 34.4436 8.1666
340.00 1487.4189 1028.3943 34.4373 7.9997
350.00 1486.9496 1028.4615 34.4310 7.8329
360.00 1486.5285 1028.5219 34.4208 7.6833
370.00 1486.1110 1028.5818 34.4103 7.5350
380.00 1485.6934 1028.6417 34.3998 7.3867
390.00 1485.2759 1028.7016 34.3893 7.2384
400.00 1484.8583 1028.7615 34.3788 7.0901
410.00 1484.4418 1028.8214 34.3683 6.9421
420.00 1484.1771 1028.8765 34.3605 6.8348
430.00 1483.9124 1028.9317 34.3527 6.7274
440.00 1483.6476 1028.9869 34.3448 6.6201
450.00 1483.3829 1029.0420 34.3370 6.5128
460.00 1483.1182 1029.0972 34.3291 6.4054
470.00 1482.8535 1029.1524 34.3213 6.2981
480.00 1482.6255 1029.2070 34.3146 6.2000
490.00 1482.5063 1029.2601 34.3111 6.1293
500.00 1482.3870 1029.3132 34.3076 6.0586
510.00 1482.2678 1029.3663 34.3041 5.9879
520.00 1482.1485 1029.4194 34.3006 5.9172
530.00 1482.0292 1029.4725 34.2972 5.8465
540.00 1481.9100 1029.5256 34.2937 5.7758
550.00 1481.7907 1029.5787 34.2902 5.7051
560.00 1481.7264 1029.6318 34.2891 5.6478
570.00 1481.6824 1029.6848 34.2889 5.5954
580.00 1481.6384 1029.7378 34.2887 5.5431
590.00 1481.5945 1029.7909 34.2885 5.4907
600.00 1481.5505 1029.8439 34.2883 5.4384
610.00 1481.5065 1029.8969 34.2881 5.3860
620.00 1481.4626 1029.9500 34.2879 5.3337
630.00 1481.4186 1030.0030 34.2878 5.2813
640.00 1481.3869 1030.0565 34.2886 5.2319
650.00 1481.3663 1030.1103 34.2905 5.1851
660.00 1481.3457 1030.1641 34.2923 5.1383
670.00 1481.3251 1030.2180 34.2942 5.0915
680.00 1481.3044 1030.2718 34.2960 5.0447
690.00 1481.2838 1030.3256 34.2979 4.9979
700.00 1481.2632 1030.3794 34.2997 4.9511
710.00 1481.2426 1030.4333 34.3016 4.9043
720.00 1481.2220 1030.4871 34.3034 4.8575
730.00 1481.2080 1030.5415 34.3064 4.8123
740.00 1481.1962 1030.5962 34.3097 4.7676
750.00 1481.1844 1030.6509 34.3131 4.7229
760.00 1481.1726 1030.7055 34.3164 4.6782
770.00 1481.1608 1030.7602 34.3197 4.6335
780.00 1481.1490 1030.8148 34.3230 4.5888
790.00 1481.1372 1030.8695 34.3264 4.5441
800.00 1481.1254 1030.9241 34.3297 4.4994
810.00 1481.1136 1030.9788 34.3330 4.4547
820.00 1481.1118 1031.0336 34.3370 4.4125
830.00 1481.1181 1031.0885 34.3414 4.3721
840.00 1481.1243 1031.1435 34.3459 4.3318
850.00 1481.1306 1031.1984 34.3503 4.2914
860.00 1481.1369 1031.2533 34.3548 4.2511
870.00 1481.1431 1031.3083 34.3592 4.2107
880.00 1481.1494 1031.3632 34.3637 4.1704
890.00 1481.1557 1031.4181 34.3681 4.1300
900.00 1481.1619 1031.4731 34.3726 4.0897
910.00 1481.1690 1031.5280 34.3771 4.0495
920.00 1481.2070 1031.5822 34.3819 4.0169
930.00 1481.2451 1031.6364 34.3867 3.9842
940.00 1481.2831 1031.6906 34.3915 3.9516
950.00 1481.3212 1031.7448 34.3963 3.9190
960.00 1481.3592 1031.7990 34.4011 3.8863
970.00 1481.3973 1031.8532 34.4059 3.8537
980.00 1481.4353 1031.9074 34.4107 3.8210
990.00 1481.4734 1031.9615 34.4155 3.7884
1000.00 1481.5114 1032.0157 34.4203 3.7557
1010.00 1481.5576 1032.0696 34.4250 3.7251
1020.00 1481.6242 1032.1224 34.4293 3.6995
1030.00 1481.6909 1032.1753 34.4336 3.6739
1040.00 1481.7575 1032.2282 34.4378 3.6483
1050.00 1481.8242 1032.2811 34.4421 3.6227
1060.00 1481.8909 1032.3339 34.4464 3.5971
1070.00 1481.9575 1032.3868 34.4507 3.5715
1080.00 1482.0242 1032.4397 34.4550 3.5459
1090.00 1482.0908 1032.4926 34.4593 3.5203
1100.00 1482.1575 1032.5454 34.4636 3.4948
1110.00 1482.2304 1032.5978 34.4676 3.4708
1120.00 1482.3125 1032.6495 34.4710 3.4491
1130.00 1482.3946 1032.7012 34.4745 3.4274
1140.00 1482.4767 1032.7529 34.4780 3.4058
1150.00 1482.5588 1032.8046 34.4814 3.3841
1160.00 1482.6409 1032.8563 34.4849 3.3625
1170.00 1482.7230 1032.9080 34.4884 3.3408
1180.00 1482.8051 1032.9597 34.4919 3.3192
1190.00 1482.8872 1033.0114 34.4953 3.2975
1200.00 1482.9692 1033.0631 34.4988 3.2758
1210.00 1483.0547 1033.1145 34.5020 3.2551
1220.00 1483.1443 1033.1653 34.5047 3.2354
1230.00 1483.2338 1033.2162 34.5075 3.2157
1240.00 1483.3234 1033.2670 34.5103 3.1961
1250.00 1483.4130 1033.3179 34.5130 3.1764
1260.00 1483.5026 1033.3688 34.5158 3.1567
1270.00 1483.5922 1033.4196 34.5186 3.1371
1280.00 1483.6818 1033.4705 34.5213 3.1174
1290.00 1483.7713 1033.5214 34.5241 3.0977
1300.00 1483.8609 1033.5722 34.5268 3.0781
1310.00 1483.9523 1033.6229 34.5294 3.0589
1320.00 1484.0467 1033.6732 34.5317 3.0405
1330.00 1484.1410 1033.7235 34.5340 3.0220
1340.00 1484.2353 1033.7738 34.5363 3.0036
1350.00 1484.3297 1033.8241 34.5386 2.9852
1360.00 1484.4240 1033.8744 34.5409 2.9668
1370.00 1484.5184 1033.9247 34.5432 2.9484
1380.00 1484.6127 1033.9750 34.5454 2.9300
1390.00 1484.7071 1034.0252 34.5477 2.9116
1400.00 1484.8014 1034.0755 34.5500 2.8932
1410.00 1484.8961 1034.1258 34.5523 2.8749
1420.00 1484.9946 1034.1757 34.5542 2.8575
1430.00 1485.0932 1034.2256 34.5562 2.8402
1440.00 1485.1917 1034.2754 34.5582 2.8228
1450.00 1485.2902 1034.3253 34.5601 2.8055
1460.00 1485.3888 1034.3752 34.5621 2.7881
1470.00 1485.4873 1034.4251 34.5640 2.7708
1480.00 1485.5858 1034.4749 34.5660 2.7534
1490.00 1485.6843 1034.5248 34.5680 2.7361
1500.00 1485.7829 1034.5747 34.5699 2.7187
1510.00 1485.8814 1034.6246 34.5719 2.7014
1520.00 1485.9814 1034.6743 34.5738 2.6844
1530.00 1486.0850 1034.7238 34.5755 2.6683
1540.00 1486.1886 1034.7732 34.5772 2.6521
1550.00 1486.2922 1034.8227 34.5788 2.6360
1560.00 1486.3958 1034.8722 34.5805 2.6199
1570.00 1486.4994 1034.9216 34.5822 2.6038
1580.00 1486.6030 1034.9711 34.5839 2.5877
1590.00 1486.7066 1035.0205 34.5856 2.5715
1600.00 1486.8102 1035.0700 34.5873 2.5554
1610.00 1486.9138 1035.1195 34.5890 2.5393
1620.00 1487.0174 1035.1689 34.5907 2.5232
1630.00 1487.1210 1035.2184 34.5924 2.5071
1640.00 1487.2289 1035.2676 34.5939 2.4919
1650.00 1487.3399 1035.3166 34.5953 2.4775
1660.00 1487.4508 1035.3656 34.5968 2.4631
1670.00 1487.5618 1035.4146 34.5982 2.4487
1680.00 1487.6727 1035.4636 34.5996 2.4343
1690.00 1487.7837 1035.5125 34.6010 2.4199
1700.00 1487.8947 1035.5615 34.6025 2.4055
1710.00 1488.0056 1035.6105 34.6039 2.3911
1720.00 1488.1166 1035.6595 34.6053 2.3767
1730.00 1488.2275 1035.7085 34.6067 2.3623
1740.00 1488.3385 1035.7575 34.6082 2.3479
1750.00 1488.4495 1035.8065 34.6096 2.3335
1760.00 1488.5604 1035.8555 34.6110 2.3191
1770.00 1488.6760 1035.9042 34.6123 2.3057
1780.00 1488.7965 1035.9527 34.6135 2.2935
1790.00 1488.9170 1036.0012 34.6146 2.2813
1800.00 1489.0375 1036.0496 34.6158 2.2691
1810.00 1489.1580 1036.0981 34.6169 2.2568
1820.00 1489.2785 1036.1465 34.6181 2.2446
1830.00 1489.3990 1036.1950 34.6193 2.2324
1840.00 1489.5195 1036.2435 34.6204 2.2201
1850.00 1489.6400 1036.2919 34.6216 2.2079
1860.00 1489.7605 1036.3404 34.6228 2.1957
1870.00 1489.8810 1036.3888 34.6239 2.1835
1880.00 1490.0015 1036.4373 34.6251 2.1712
1890.00 1490.1220 1036.4858 34.6262 2.1590
1900.00 1490.2425 1036.5342 34.6274 2.1468
1910.00 1490.3630 1036.5827 34.6286 2.1345
1920.00 1490.4898 1036.6308 34.6296 2.1237
1930.00 1490.6211 1036.6787 34.6305 2.1139
1940.00 1490.7524 1036.7266 34.6314 2.1041
1950.00 1490.8836 1036.7745 34.6323 2.0942
1960.00 1491.0149 1036.8224 34.6332 2.0844
1970.00 1491.1462 1036.8703 34.6342 2.0746
1980.00 1491.2774 1036.9181 34.6351 2.0647
1990.00 1491.4087 1036.9660 34.6360 2.0549
2000.00 1491.5400 1037.0139 34.6369 2.0451
2010.00 1491.6712 1037.0618 34.6378 2.0353
2020.00 1491.8025 1037.1097 34.6388 2.0254
2030.00 1491.9338 1037.1576 34.6397 2.0156
2040.00 1492.0651 1037.2055 34.6406 2.0058
2050.00 1492.1963 1037.2534 34.6415 1.9959
2060.00 1492.3276 1037.3013 34.6424 1.9861
2070.00 1492.4589 1037.3492 34.6433 1.9763
2080.00 1492.5901 1037.3971 34.6443 1.9665
2090.00 1492.7277 1037.4446 34.6451 1.9580
2100.00 1492.8695 1037.4920 34.6458 1.9505
2110.00 1493.0113 1037.5393 34.6465 1.9429
2120.00 1493.1531 1037.5866 34.6472 1.9354
2130.00 1493.2950 1037.6340 34.6479 1.9278
2140.00 1493.4368 1037.6813 34.6486 1.9203
2150.00 1493.5786 1037.7287 34.6493 1.9128
2160.00 1493.7204 1037.7760 34.6500 1.9052
2170.00 1493.8622 1037.8233 34.6507 1.8977
2180.00 1494.0040 1037.8707 34.6514 1.8902
2190.00 1494.1458 1037.9180 34.6521 1.8826
2200.00 1494.2876 1037.9654 34.6528 1.8751
2210.00 1494.4295 1038.0127 34.6536 1.8675
2220.00 1494.5713 1038.0600 34.6543 1.8600
2230.00 1494.7131 1038.1074 34.6550 1.8525
2240.00 1494.8549 1038.1547 34.6557 1.8449
2250.00 1494.9967 1038.2021 34.6564 1.8374
2260.00 1495.1385 1038.2494 34.6571 1.8299
2270.00 1495.2803 1038.2967 34.6578 1.8223
2280.00 1495.4257 1038.3439 34.6584 1.8155
2290.00 1495.5770 1038.3907 34.6590 1.8100
2300.00 1495.7282 1038.4375 34.6595 1.8045
2310.00 1495.8795 1038.4843 34.6600 1.7989
2320.00 1496.0308 1038.5312 34.6606 1.7934
2330.00 1496.1820 1038.5780 34.6611 1.7878
2340.00 1496.3333 1038.6248 34.6616 1.7823
2350.00 1496.4846 1038.6716 34.6621 1.7767
2360.00 1496.6358 1038.7184 34.6627 1.7712
2370.00 1496.7871 1038.7653 34.6632 1.7656
2380.00 1496.9384 1038.8121 34.6637 1.7601
2390.00 1497.0896 1038.8589 34.6643 1.7546
2400.00 1497.2409 1038.9057 34.6648 1.7490
2410.00 1497.3922 1038.9525 34.6653 1.7435
2420.00 1497.5434 1038.9994 34.6659 1.7379
2430.00 1497.6947 1039.0462 34.6664 1.7324
2440.00 1497.8459 1039.0930 34.6669 1.7268
2450.00 1497.9972 1039.1398 34.6674 1.7213
2460.00 1498.1485 1039.1866 34.6680 1.7158
2470.00 1498.2997 1039.2335 34.6685 1.7102
2480.00 1498.4510 1039.2803 34.6690 1.7047
2490.00 1498.6023 1039.3271 34.6696 1.6991
2500.00 1498.7600 1039.3735 34.6700 1.6949
2510.00 1498.9186 1039.4199 34.6704 1.6908
2520.00 1499.0772 1039.4663 34.6707 1.6867
2530.00 1499.2358 1039.5126 34.6711 1.6827
2540.00 1499.3944 1039.5590 34.6715 1.6786
2550.00 1499.5530 1039.6054 34.6719 1.6745
2560.00 1499.7116 1039.6517 34.6723 1.6705
2570.00 1499.8702 1039.6981 34.6727 1.6664
2580.00 1500.0288 1039.7445 34.6731 1.6623
2590.00 1500.1874 1039.7908 34.6735 1.6582
2600.00 1500.3460 1039.8372 34.6738 1.6542
2610.00 1500.5046 1039.8836 34.6742 1.6501
2620.00 1500.6632 1039.9299 34.6746 1.6460
2630.00 1500.8219 1039.9763 34.6750 1.6420
2640.00 1500.9805 1040.0227 34.6754 1.6379
2650.00 1501.1391 1040.0690 34.6758 1.6338
2660.00 1501.2977 1040.1154 34.6762 1.6298
2670.00 1501.4563 1040.1618 34.6766 1.6257
2680.00 1501.6149 1040.2081 34.6769 1.6216
2690.00 1501.7735 1040.2545 34.6773 1.6176
2700.00 1501.9321 1040.3009 34.6777 1.6135
2710.00 1502.0907 1040.3472 34.6781 1.6094
2720.00 1502.2493 1040.3936 34.6785 1.6053
2730.00 1502.4084 1040.4399 34.6789 1.6014
2740.00 1502.5728 1040.4859 34.6791 1.5984
2750.00 1502.7372 1040.5319 34.6794 1.5954
2760.00 1502.9016 1040.5778 34.6797 1.5925
2770.00 1503.0661 1040.6238 34.6800 1.5895
2780.00 1503.2305 1040.6697 34.6802 1.5865
2790.00 1503.3949 1040.7157 34.6805 1.5835
2800.00 1503.5593 1040.7616 34.6808 1.5806
2810.00 1503.7238 1040.8076 34.6810 1.5776
2820.00 1503.8882 1040.8536 34.6813 1.5746
2830.00 1504.0526 1040.8995 34.6816 1.5717
2840.00 1504.2170 1040.9455 34.6818 1.5687
2850.00 1504.3815 1040.9914 34.6821 1.5657
2860.00 1504.5459 1041.0374 34.6824 1.5628
2870.00 1504.7103 1041.0833 34.6827 1.5598
2880.00 1504.8748 1041.1293 34.6829 1.5568
2890.00 1505.0392 1041.1753 34.6832 1.5539
2900.00 1505.2036 1041.2212 34.6835 1.5509
2910.00 1505.3680 1041.2672 34.6837 1.5479
2920.00 1505.5325 1041.3131 34.6840 1.5449
2930.00 1505.6969 1041.3591 34.6843 1.5420
2940.00 1505.8613 1041.4050 34.6845 1.5390
2950.00 1506.0257 1041.4510 34.6848 1.5360
2960.00 1506.1902 1041.4969 34.6851 1.5331
2970.00 1506.3546 1041.5429 34.6854 1.5301
2980.00 1506.5190 1041.5889 34.6856 1.5271
2990.00 1506.6834 1041.6348 34.6859 1.5242
3000.00 1506.8516 1041.6805 34.6861 1.5218
3010.00 1507.0199 1041.7261 34.6863 1.5195
3020.00 1507.1882 1041.7717 34.6865 1.5171
3030.00 1507.3565 1041.8173 34.6867 1.5148
3040.00 1507.5248 1041.8629 34.6869 1.5124
3050.00 1507.6931 1041.9086 34.6871 1.5101
3060.00 1507.8614 1041.9542 34.6873 1.5078
3070.00 1508.0297 1041.9998 34.6875 1.5054
3080.00 1508.1980 1042.0454 34.6877 1.5031
3090.00 1508.3663 1042.0911 34.6879 1.5007
3100.00 1508.5346 1042.1367 34.6881 1.4984
3110.00 1508.7029 1042.1823 34.6883 1.4961
3120.00 1508.8712 1042.2279 34.6885 1.4937
3130.00 1509.0395 1042.2736 34.6887 1.4914
3140.00 1509.2078 1042.3192 34.6889 1.4891
3150.00 1509.3761 1042.3648 34.6891 1.4867
3160.00 1509.5444 1042.4104 34.6893 1.4844
3170.00 1509.7127 1042.4561 34.6895 1.4820
3180.00 1509.8810 1042.5017 34.6897 1.4797
3190.00 1510.0493 1042.5473 34.6899 1.4774
3200.00 1510.2176 1042.5929 34.6901 1.4750
3210.00 1510.3859 1042.6386 34.6903 1.4727
3220.00 1510.5542 1042.6842 34.6905 1.4703
3230.00 1510.7225 1042.7298 34.6907 1.4680
3240.00 1510.8908 1042.7754 34.6909 1.4657
3250.00 1511.0591 1042.8210 34.6911 1.4633
3260.00 1511.2274 1042.8667 34.6913 1.4610
3270.00 1511.3957 1042.9123 34.6915 1.4586
3280.00 1511.5663 1042.9577 34.6917 1.4567
3290.00 1511.7385 1043.0030 34.6918 1.4549
3300.00 1511.9107 1043.0483 34.6920 1.4532
3310.00 1512.0829 1043.0936 34.6921 1.4515
3320.00 1512.2552 1043.1389 34.6923 1.4498
3330.00 1512.4274 1043.1842 34.6924 1.4480
3340.00 1512.5996 1043.2294 34.6926 1.4463
3350.00 1512.7718 1043.2747 34.6927 1.4446
3360.00 1512.9440 1043.3200 34.6929 1.4429
3370.00 1513.1163 1043.3653 34.6931 1.4412
3380.00 1513.2885 1043.4106 34.6932 1.4394
3390.00 1513.4607 1043.4559 34.6934 1.4377
3400.00 1513.6329 1043.5012 34.6935 1.4360
3410.00 1513.8051 1043.5464 34.6937 1.4343
3420.00 1513.9774 1043.5917 34.6938 1.4325
3430.00 1514.1496 1043.6370 34.6940 1.4308
3440.00 1514.3218 1043.6823 34.6941 1.4291
3450.00 1514.4940 1043.7276 34.6943 1.4274
3460.00 1514.6662 1043.7729 34.6944 1.4256
3470.00 1514.8385 1043.8182 34.6946 1.4239
3480.00 1515.0107 1043.8634 34.6947 1.4222
3490.00 1515.1829 1043.9087 34.6949 1.4205
3500.00 1515.3551 1043.9540 34.6951 1.4188
3510.00 1515.5273 1043.9993 34.6952 1.4170
3520.00 1515.6996 1044.0446 34.6954 1.4153
3530.00 1515.8718 1044.0899 34.6955 1.4136
3540.00 1516.0440 1044.1352 34.6957 1.4119
3550.00 1516.2162 1044.1804 34.6958 1.4101
3560.00 1516.3885 1044.2257 34.6960 1.4084
3570.00 1516.5607 1044.2710 34.6961 1.4067
3580.00 1516.7329 1044.3163 34.6963 1.4050
3590.00 1516.9123 1044.3611 34.6963 1.4046
3600.00 1517.0927 1044.4057 34.6963 1.4045
3610.00 1517.2732 1044.4504 34.6963 1.4044
3620.00 1517.4536 1044.4951 34.6964 1.4043
3630.00 1517.6340 1044.5398 34.6964 1.4041
3640.00 1517.8145 1044.5845 34.6964 1.4040
3650.00 1517.9949 1044.6291 34.6964 1.4039
3660.00 1518.1753 1044.6738 34.6964 1.4037
3670.00 1518.3558 1044.7185 34.6964 1.4036
3680.00 1518.5362 1044.7632 34.6964 1.4035
3690.00 1518.7166 1044.8079 34.6965 1.4034
3700.00 1518.8971 1044.8525 34.6965 1.4032
3710.00 1519.0775 1044.8972 34.6965 1.4031
3720.00 1519.2579 1044.9419 34.6965 1.4030
3730.00 1519.4384 1044.9866 34.6965 1.4028
3740.00 1519.6188 1045.0313 34.6965 1.4027
3750.00 1519.7992 1045.0759 34.6965 1.4026
3760.00 1519.9797 1045.1206 34.6965 1.4024
3770.00 1520.1601 1045.1653 34.6966 1.4023
3780.00 1520.3405 1045.2100 34.6966 1.4022
3790.00 1520.5210 1045.2547 34.6966 1.4021
3800.00 1520.7014 1045.2993 34.6966 1.4019
3810.00 1520.8818 1045.3440 34.6966 1.4018
3820.00 1521.0622 1045.3887 34.6966 1.4017
3830.00 1521.2427 1045.4334 34.6966 1.4015
3840.00 1521.4231 1045.4780 34.6967 1.4014
3850.00 1521.6035 1045.5227 34.6967 1.4013
3860.00 1521.7840 1045.5674 34.6967 1.4012
3870.00 1521.9644 1045.6121 34.6967 1.4010
3880.00 1522.1448 1045.6568 34.6967 1.4009
3890.00 1522.3253 1045.7014 34.6967 1.4008
3900.00 1522.5057 1045.7461 34.6967 1.4006
3910.00 1522.6861 1045.7908 34.6968 1.4005
3920.00 nan nan nan nan
3930.00 nan nan nan nan
3940.00 nan nan nan nan
3950.00 nan nan nan nan
3960.00 nan nan nan nan
3970.00 nan nan nan nan
3980.00 nan nan nan nan
3990.00 nan nan nan nan
4000.00 nan nan nan nan
4010.00 nan nan nan nan
4020.00 nan nan nan nan
4030.00 nan nan nan nan
4040.00 nan nan nan nan
4050.00 nan nan nan nan
4060.00 nan nan nan nan
4070.00 nan nan nan nan
4080.00 nan nan nan nan
4090.00 nan nan nan nan
4100.00 nan nan nan nan
4110.00 nan nan nan nan
4120.00 nan nan nan nan
4130.00 nan nan nan nan
4140.00 nan nan nan nan
4150.00 nan nan nan nan
4160.00 nan nan nan nan
4170.00 nan nan nan nan
4180.00 nan nan nan nan
4190.00 nan nan nan nan
4200.00 nan nan nan nan
4210.00 nan nan nan nan
4220.00 nan nan nan nan
4230.00 nan nan nan nan
4240.00 nan nan nan nan
4250.00 nan nan nan nan
4260.00 nan nan nan nan
4270.00 nan nan nan nan
4280.00 nan nan nan nan
4290.00 nan nan nan nan
4300.00 nan nan nan nan
4310.00 nan nan nan nan
4320.00 nan nan nan nan
4330.00 nan nan nan nan
4340.00 nan nan nan nan
4350.00 nan nan nan nan
4360.00 nan nan nan nan
4370.00 nan nan nan nan
4380.00 nan nan nan nan
4390.00 nan nan nan nan
4400.00 nan nan nan nan
4410.00 nan nan nan nan
4420.00 nan nan nan nan
4430.00 nan nan nan nan
4440.00 nan nan nan nan
4450.00 nan nan nan nan
4460.00 nan nan nan nan
4470.00 nan nan nan nan
4480.00 nan nan nan nan
4490.00 nan nan nan nan
4500.00 nan nan nan nan
4510.00 nan nan nan nan
4520.00 nan nan nan nan
4530.00 nan nan nan nan
4540.00 nan nan nan nan
4550.00 nan nan nan nan
4560.00 nan nan nan nan
4570.00 nan nan nan nan
4580.00 nan nan nan nan
4590.00 nan nan nan nan
4600.00 nan nan nan nan
4610.00 nan nan nan nan
4620.00 nan nan nan nan
4630.00 nan nan nan nan
4640.00 nan nan nan nan
4650.00 nan nan nan nan
4660.00 nan nan nan nan
4670.00 nan nan nan nan
4680.00 nan nan nan nan
4690.00 nan nan nan nan
4700.00 nan nan nan nan
4710.00 nan nan nan nan
4720.00 nan nan nan nan
4730.00 nan nan nan nan
4740.00 nan nan nan nan
4750.00 nan nan nan nan
4760.00 nan nan nan nan
4770.00 nan nan nan nan
4780.00 nan nan nan nan
4790.00 nan nan nan nan
4800.00 nan nan nan nan
4810.00 nan nan nan nan
4820.00 nan nan nan nan
4830.00 nan nan nan nan
4840.00 nan nan nan nan
4850.00 nan nan nan nan
4860.00 nan nan nan nan
4870.00 nan nan nan nan
4880.00 nan nan nan nan
4890.00 nan nan nan nan
4900.00 nan nan nan nan
4910.00 nan nan nan nan
4920.00 nan nan nan nan
4930.00 nan nan nan nan
4940.00 nan nan nan nan
4950.00 nan nan nan nan
4960.00 nan nan nan nan
4970.00 nan nan nan nan
4980.00 nan nan nan nan
4990.00 nan nan nan nan
5000.00 nan nan nan nan
5010.00 nan nan nan nan
5020.00 nan nan nan nan
5030.00 nan nan nan nan
5040.00 nan nan nan nan
5050.00 nan nan nan nan
5060.00 nan nan nan nan
5070.00 nan nan nan nan
5080.00 nan nan nan nan
5090.00 nan nan nan nan
5100.00 nan nan nan nan
5110.00 nan nan nan nan
5120.00 nan nan nan nan
5130.00 nan nan nan nan
5140.00 nan nan nan nan
5150.00 nan nan nan nan
5160.00 nan nan nan nan
5170.00 nan nan nan nan
5180.00 nan nan nan nan
5190.00 nan nan nan nan
5200.00 nan nan nan nan
5210.00 nan nan nan nan
5220.00 nan nan nan nan
5230.00 nan nan nan nan
5240.00 nan nan nan nan
5250.00 nan nan nan nan
5260.00 nan nan nan nan
5270.00 nan nan nan nan
5280.00 nan nan nan nan
5290.00 nan nan nan nan
5300.00 nan nan nan nan
5310.00 nan nan nan nan
5320.00 nan nan nan nan
5330.00 nan nan nan nan
5340.00 nan nan nan nan
5350.00 nan nan nan nan
5360.00 nan nan nan nan
5370.00 nan nan nan nan
5380.00 nan nan nan nan
5390.00 nan nan nan nan
5400.00 nan nan nan nan
5410.00 nan nan nan nan
5420.00 nan nan nan nan
5430.00 nan nan nan nan
5440.00 nan nan nan nan
5450.00 nan nan nan nan
5460.00 nan nan nan nan
5470.00 nan nan nan nan
5480.00 nan nan nan nan
5490.00 nan nan nan nan
5500.00 nan nan nan nan
5510.00 nan nan nan nan
5520.00 nan nan nan nan
5530.00 nan nan nan nan
5540.00 nan nan nan nan
5550.00 nan nan nan nan
5560.00 nan nan nan nan
5570.00 nan nan nan nan
5580.00 nan nan nan nan
5590.00 nan nan nan nan
5600.00 nan nan nan nan
5610.00 nan nan nan nan
5620.00 nan nan nan nan
5630.00 nan nan nan nan
5640.00 nan nan nan nan
5650.00 nan nan nan nan
5660.00 nan nan nan nan
5670.00 nan nan nan nan
5680.00 nan nan nan nan
5690.00 nan nan nan nan
5700.00 nan nan nan nan
5710.00 nan nan nan nan
5720.00 nan nan nan nan
5730.00 nan nan nan nan
5740.00 nan nan nan nan
5750.00 nan nan nan nan
5760.00 nan nan nan nan
5770.00 nan nan nan nan
5780.00 nan nan nan nan
5790.00 nan nan nan nan
5800.00 nan nan nan nan
5810.00 nan nan nan nan
5820.00 nan nan nan nan
5830.00 nan nan nan nan
5840.00 nan nan nan nan
5850.00 nan nan nan nan
5860.00 nan nan nan nan
5870.00 nan nan nan nan
5880.00 nan nan nan nan
5890.00 nan nan nan nan
5900.00 nan nan nan nan
5910.00 nan nan nan nan
5920.00 nan nan nan nan
5930.00 nan nan nan nan
5940.00 nan nan nan nan
5950.00 nan nan nan nan
5960.00 nan nan nan nan
5970.00 nan nan nan nan
5980.00 nan nan nan nan
5990.00 nan nan nan nan
6000.00 nan nan nan nan
6010.00 nan nan nan nan
6020.00 nan nan nan nan
6030.00 nan nan nan nan
6040.00 nan nan nan nan
6050.00 nan nan nan nan
6060.00 nan nan nan nan
6070.00 nan nan nan nan
6080.00 nan nan nan nan
6090.00 nan nan nan nan
6100.00 nan nan nan nan
6110.00 nan nan nan nan
6120.00 nan nan nan nan
6130.00 nan nan nan nan
6140.00 nan nan nan nan
6150.00 nan nan nan nan
6160.00 nan nan nan nan
6170.00 nan nan nan nan
6180.00 nan nan nan nan
6190.00 nan nan nan nan
6200.00 nan nan nan nan
6210.00 nan nan nan nan
6220.00 nan nan nan nan
6230.00 nan nan nan nan
6240.00 nan nan nan nan
6250.00 nan nan nan nan
6260.00 nan nan nan nan
6270.00 nan nan nan nan
6280.00 nan nan nan nan
6290.00 nan nan nan nan
6300.00 nan nan nan nan
6310.00 nan nan nan nan
6320.00 nan nan nan nan
6330.00 nan nan nan nan
6340.00 nan nan nan nan
6350.00 nan nan nan nan
6360.00 nan nan nan nan
6370.00 nan nan nan nan
6380.00 nan nan nan nan
6390.00 nan nan nan nan
6400.00 nan nan nan nan
6410.00 nan nan nan nan
6420.00 nan nan nan nan
6430.00 nan nan nan nan
6440.00 nan nan nan nan
6450.00 nan nan nan nan
6460.00 nan nan nan nan
6470.00 nan nan nan nan
6480.00 nan nan nan nan
6490.00 nan nan nan nan
6500.00 nan nan nan nan
6510.00 nan nan nan nan
6520.00 nan nan nan nan
6530.00 nan nan nan nan
6540.00 nan nan nan nan
6550.00 nan nan nan nan
6560.00 nan nan nan nan
6570.00 nan nan nan nan
6580.00 nan nan nan nan
6590.00 nan nan nan nan
6600.00 nan nan nan nan
6610.00 nan nan nan nan
6620.00 nan nan nan nan
6630.00 nan nan nan nan
6640.00 nan nan nan nan
6650.00 nan nan nan nan
6660.00 nan nan nan nan
6670.00 nan nan nan nan
6680.00 nan nan nan nan
6690.00 nan nan nan nan
6700.00 nan nan nan nan
6710.00 nan nan nan nan
6720.00 nan nan nan nan
6730.00 nan nan nan nan
6740.00 nan nan nan nan
6750.00 nan nan nan nan
6760.00 nan nan nan nan
6770.00 nan nan nan nan
6780.00 nan nan nan nan
6790.00 nan nan nan nan
6800.00 nan nan nan nan
6810.00 nan nan nan nan
6820.00 nan nan nan nan
6830.00 nan nan nan nan
6840.00 nan nan nan nan
6850.00 nan nan nan nan
6860.00 nan nan nan nan
6870.00 nan nan nan nan
6880.00 nan nan nan nan
6890.00 nan nan nan nan
6900.00 nan nan nan nan
6910.00 nan nan nan nan
6920.00 nan nan nan nan
6930.00 nan nan nan nan
6940.00 nan nan nan nan
6950.00 nan nan nan nan
6960.00 nan nan nan nan
6970.00 nan nan nan nan
6980.00 nan nan nan nan
6990.00 nan nan nan nan
7000.00 nan nan nan nan
7010.00 nan nan nan nan
7020.00 nan nan nan nan
7030.00 nan nan nan nan
7040.00 nan nan nan nan
7050.00 nan nan nan nan
7060.00 nan nan nan nan
7070.00 nan nan nan nan
7080.00 nan nan nan nan
7090.00 nan nan nan nan
7100.00 nan nan nan nan
7110.00 nan nan nan nan
7120.00 nan nan nan nan
7130.00 nan nan nan nan
7140.00 nan nan nan nan
7150.00 nan nan nan nan
7160.00 nan nan nan nan
7170.00 nan nan nan nan
7180.00 nan nan nan nan
7190.00 nan nan nan nan
7200.00 nan nan nan nan
7210.00 nan nan nan nan
7220.00 nan nan nan nan
7230.00 nan nan nan nan
7240.00 nan nan nan nan
7250.00 nan nan nan nan
7260.00 nan nan nan nan
7270.00 nan nan nan nan
7280.00 nan nan nan nan
7290.00 nan nan nan nan
7300.00 nan nan nan nan
7310.00 nan nan nan nan
7320.00 nan nan nan nan
7330.00 nan nan nan nan
7340.00 nan nan nan nan
7350.00 nan nan nan nan
7360.00 nan nan nan nan
7370.00 nan nan nan nan
7380.00 nan nan nan nan
7390.00 nan nan nan nan
7400.00 nan nan nan nan
7410.00 nan nan nan nan
7420.00 nan nan nan nan
7430.00 nan nan nan nan
7440.00 nan nan nan nan
7450.00 nan nan nan nan
7460.00 nan nan nan nan
7470.00 nan nan nan nan
7480.00 nan nan nan nan
7490.00 nan nan nan nan
7500.00 nan nan nan nan
7510.00 nan nan nan nan
7520.00 nan nan nan nan
7530.00 nan nan nan nan
7540.00 nan nan nan nan
7550.00 nan nan nan nan
7560.00 nan nan nan nan
7570.00 nan nan nan nan
7580.00 nan nan nan nan
7590.00 nan nan nan nan
7600.00 nan nan nan nan
7610.00 nan nan nan nan
7620.00 nan nan nan nan
7630.00 nan nan nan nan
7640.00 nan nan nan nan
7650.00 nan nan nan nan
7660.00 nan nan nan nan
7670.00 nan nan nan nan
7680.00 nan nan nan nan
7690.00 nan nan nan nan
7700.00 nan nan nan nan
7710.00 nan nan nan nan
7720.00 nan nan nan nan
7730.00 nan nan nan nan
7740.00 nan nan nan nan
7750.00 nan nan nan nan
7760.00 nan nan nan nan
7770.00 nan nan nan nan
7780.00 nan nan nan nan
7790.00 nan nan nan nan
7800.00 nan nan nan nan
7810.00 nan nan nan nan
7820.00 nan nan nan nan
7830.00 nan nan nan nan
7840.00 nan nan nan nan
7850.00 nan nan nan nan
7860.00 nan nan nan nan
7870.00 nan nan nan nan
7880.00 nan nan nan nan
7890.00 nan nan nan nan
7900.00 nan nan nan nan
7910.00 nan nan nan nan
7920.00 nan nan nan nan
7930.00 nan nan nan nan
7940.00 nan nan nan nan
7950.00 nan nan nan nan
7960.00 nan nan nan nan
7970.00 nan nan nan nan
7980.00 nan nan nan nan
7990.00 nan nan nan nan
