# Averages over distance (i) for each depth (k):
# Depth(m) Speed(m/s) Density(kg/m^3) Salt PSU Theta(degC)
0.00 1511.9043 1024.9917 34.3030 16.9669
10.00 1511.9799 1025.0422 34.3014 16.9362
20.00 1511.9071 1025.1025 34.2977 16.8572
30.00 1511.4524 1025.1868 34.2878 16.6548
40.00 1510.5149 1025.3006 34.2705 16.2987
50.00 1509.1781 1025.4371 34.2476 15.8192
60.00 1507.6422 1025.5821 34.2220 15.2833
70.00 1506.0913 1025.7238 34.1963 14.7503
80.00 1504.6505 1025.8551 34.1715 14.2584
90.00 1503.3690 1025.9730 34.1471 13.8214
100.00 1502.2367 1026.0788 34.1224 13.4348
110.00 1501.2241 1026.1757 34.0983 13.0877
120.00 1500.2832 1026.2684 34.0763 12.7644
130.00 1499.3493 1026.3618 34.0572 12.4448
140.00 1498.3874 1026.4590 34.0423 12.1177
150.00 1497.4346 1026.5655 34.0413 11.7919
160.00 1496.5386 1026.6783 34.0527 11.4801
170.00 1495.6884 1026.7961 34.0742 11.1797
180.00 1494.9744 1026.9183 34.1109 10.9155
190.00 1494.3034 1027.0417 34.1525 10.6628
200.00 1493.7250 1027.1621 34.1968 10.4368
210.00 1493.2300 1027.2795 34.2436 10.2348
220.00 1492.7351 1027.3970 34.2905 10.0328
230.00 1492.2951 1027.5027 34.3276 9.8516
240.00 1491.8756 1027.6041 34.3611 9.6781
250.00 1491.4562 1027.7054 34.3947 9.5045
260.00 1491.0324 1027.8017 34.4223 9.3326
270.00 1490.5958 1027.8827 34.4322 9.1656
280.00 1490.1592 1027.9637 34.4422 8.9985
290.00 1489.7226 1028.0447 34.4521 8.8315
300.00 1489.2857 1028.1256 34.4620 8.6644
310.00 1488.8168 1028.1928 34.4557 8.4977
320.00 1488.3478 1028.2600 34.4495 8.3309
330.00 1487.8789 1028.3272 34.4432 8.1642
340.00 1487.4099 1028.3944 34.4370 7.9975
350.00 1486.9410 1028.4616 34.4307 7.8307
360.00 1486.5202 1028.5220 34.4205 7.6812
370.00 1486.1030 1028.5819 34.4100 7.5330
380.00 1485.6858 1028.6418 34.3995 7.3848
390.00 1485.2686 1028.7017 34.3891 7.2366
400.00 1484.8513 1028.7615 34.3786 7.0884
410.00 1484.4352 1028.8214 34.3681 6.9405
420.00 1484.1707 1028.8766 34.3603 6.8332
430.00 1483.9063 1028.9317 34.3524 6.7259
440.00 1483.6418 1028.9869 34.3446 6.6187
450.00 1483.3774 1029.0421 34.3368 6.5114
460.00 1483.1129 1029.0973 34.3289 6.4042
470.00 1482.8485 1029.1524 34.3211 6.2969
480.00 1482.6208 1029.2071 34.3144 6.1989
490.00 1482.5017 1029.2602 34.3109 6.1282
500.00 1482.3827 1029.3132 34.3074 6.0576
510.00 1482.2636 1029.3663 34.3039 5.9869
520.00 1482.1445 1029.4194 34.3005 5.9163
530.00 1482.0254 1029.4725 34.2970 5.8456
540.00 1481.9064 1029.5256 34.2935 5.7750
550.00 1481.7873 1029.5787 34.2900 5.7043
560.00 1481.7231 1029.6317 34.2890 5.6470
570.00 1481.6792 1029.6848 34.2888 5.5947
580.00 1481.6353 1029.7378 34.2886 5.5423
590.00 1481.5914 1029.7908 34.2884 5.4900
600.00 1481.5476 1029.8439 34.2882 5.4377
610.00 1481.5037 1029.8969 34.2880 5.3854
620.00 1481.4598 1029.9499 34.2878 5.3330
630.00 1481.4160 1030.0030 34.2876 5.2807
640.00 1481.3844 1030.0564 34.2885 5.2313
650.00 1481.3639 1030.1102 34.2903 5.1845
660.00 1481.3433 1030.1641 34.2922 5.1378
670.00 1481.3228 1030.2179 34.2940 5.0910
680.00 1481.3023 1030.2717 34.2959 5.0442
690.00 1481.2817 1030.3255 34.2977 4.9975
700.00 1481.2612 1030.3794 34.2996 4.9507
710.00 1481.2407 1030.4332 34.3014 4.9039
720.00 1481.2201 1030.4870 34.3032 4.8572
730.00 1481.2063 1030.5415 34.3062 4.8120
740.00 1481.1945 1030.5961 34.3095 4.7673
750.00 1481.1828 1030.6508 34.3129 4.7226
760.00 1481.1711 1030.7054 34.3162 4.6779
770.00 1481.1593 1030.7601 34.3195 4.6332
780.00 1481.1476 1030.8147 34.3228 4.5886
790.00 1481.1358 1030.8694 34.3261 4.5439
800.00 1481.1241 1030.9240 34.3295 4.4992
810.00 1481.1124 1030.9787 34.3328 4.4545
820.00 1481.1106 1031.0335 34.3367 4.4122
830.00 1481.1168 1031.0884 34.3412 4.3719
840.00 1481.1230 1031.1433 34.3456 4.3315
850.00 1481.1292 1031.1983 34.3501 4.2911
860.00 1481.1354 1031.2532 34.3545 4.2508
870.00 1481.1416 1031.3081 34.3590 4.2104
880.00 1481.1479 1031.3631 34.3634 4.1701
890.00 1481.1541 1031.4180 34.3679 4.1297
900.00 1481.1603 1031.4729 34.3724 4.0894
910.00 1481.1673 1031.5278 34.3768 4.0492
920.00 1481.2053 1031.5820 34.3816 4.0165
930.00 1481.2432 1031.6362 34.3864 3.9839
940.00 1481.2812 1031.6904 34.3912 3.9512
950.00 1481.3191 1031.7446 34.3960 3.9185
960.00 1481.3571 1031.7988 34.4009 3.8859
970.00 1481.3951 1031.8530 34.4057 3.8532
980.00 1481.4330 1031.9072 34.4105 3.8206
990.00 1481.4710 1031.9614 34.4153 3.7879
1000.00 1481.5089 1032.0156 34.4201 3.7552
1010.00 1481.5550 1032.0695 34.4248 3.7246
1020.00 1481.6217 1032.1223 34.4291 3.6990
1030.00 1481.6884 1032.1752 34.4334 3.6734
1040.00 1481.7550 1032.2281 34.4376 3.6478
1050.00 1481.8217 1032.2810 34.4419 3.6222
1060.00 1481.8884 1032.3339 34.4462 3.5966
1070.00 1481.9550 1032.3867 34.4505 3.5710
1080.00 1482.0217 1032.4396 34.4548 3.5454
1090.00 1482.0883 1032.4925 34.4591 3.5198
1100.00 1482.1550 1032.5454 34.4634 3.4942
1110.00 1482.2280 1032.5978 34.4674 3.4702
1120.00 1482.3102 1032.6495 34.4709 3.4486
1130.00 1482.3924 1032.7012 34.4744 3.4270
1140.00 1482.4745 1032.7529 34.4778 3.4053
1150.00 1482.5567 1032.8046 34.4813 3.3837
1160.00 1482.6389 1032.8563 34.4848 3.3620
1170.00 1482.7210 1032.9080 34.4883 3.3404
1180.00 1482.8032 1032.9597 34.4917 3.3187
1190.00 1482.8854 1033.0114 34.4952 3.2971
1200.00 1482.9675 1033.0631 34.4987 3.2755
1210.00 1483.0531 1033.1144 34.5019 3.2547
1220.00 1483.1427 1033.1653 34.5046 3.2351
1230.00 1483.2324 1033.2162 34.5074 3.2154
1240.00 1483.3220 1033.2670 34.5102 3.1958
1250.00 1483.4117 1033.3179 34.5129 3.1761
1260.00 1483.5013 1033.3688 34.5157 3.1565
1270.00 1483.5910 1033.4196 34.5185 3.1368
1280.00 1483.6807 1033.4705 34.5212 3.1172
1290.00 1483.7703 1033.5213 34.5240 3.0975
1300.00 1483.8600 1033.5722 34.5268 3.0778
1310.00 1483.9514 1033.6229 34.5294 3.0587
1320.00 1484.0458 1033.6732 34.5317 3.0403
1330.00 1484.1402 1033.7235 34.5340 3.0219
1340.00 1484.2346 1033.7738 34.5362 3.0035
1350.00 1484.3290 1033.8240 34.5385 2.9851
1360.00 1484.4234 1033.8743 34.5408 2.9667
1370.00 1484.5178 1033.9246 34.5431 2.9483
1380.00 1484.6122 1033.9749 34.5454 2.9299
1390.00 1484.7066 1034.0252 34.5477 2.9115
1400.00 1484.8010 1034.0755 34.5500 2.8931
1410.00 1484.8957 1034.1258 34.5522 2.8748
1420.00 1484.9943 1034.1757 34.5542 2.8574
1430.00 1485.0929 1034.2256 34.5562 2.8401
1440.00 1485.1914 1034.2754 34.5581 2.8228
1450.00 1485.2900 1034.3253 34.5601 2.8054
1460.00 1485.3885 1034.3752 34.5621 2.7881
1470.00 1485.4871 1034.4251 34.5640 2.7707
1480.00 1485.5856 1034.4749 34.5660 2.7534
1490.00 1485.6842 1034.5248 34.5679 2.7360
1500.00 1485.7828 1034.5747 34.5699 2.7187
1510.00 1485.8813 1034.6246 34.5719 2.7014
1520.00 1485.9813 1034.6743 34.5738 2.6844
1530.00 1486.0850 1034.7238 34.5754 2.6682
1540.00 1486.1886 1034.7732 34.5771 2.6521
1550.00 1486.2922 1034.8227 34.5788 2.6360
1560.00 1486.3958 1034.8721 34.5805 2.6199
1570.00 1486.4994 1034.9216 34.5822 2.6038
1580.00 1486.6030 1034.9711 34.5839 2.5877
1590.00 1486.7067 1035.0205 34.5856 2.5715
1600.00 1486.8103 1035.0700 34.5873 2.5554
1610.00 1486.9139 1035.1195 34.5890 2.5393
1620.00 1487.0175 1035.1689 34.5907 2.5232
1630.00 1487.1211 1035.2184 34.5924 2.5071
1640.00 1487.2290 1035.2676 34.5939 2.4920
1650.00 1487.3400 1035.3166 34.5953 2.4776
1660.00 1487.4510 1035.3656 34.5968 2.4632
1670.00 1487.5619 1035.4146 34.5982 2.4487
1680.00 1487.6729 1035.4635 34.5996 2.4343
1690.00 1487.7839 1035.5125 34.6010 2.4199
1700.00 1487.8948 1035.5615 34.6025 2.4055
1710.00 1488.0058 1035.6105 34.6039 2.3911
1720.00 1488.1168 1035.6595 34.6053 2.3767
1730.00 1488.2277 1035.7085 34.6067 2.3623
1740.00 1488.3387 1035.7575 34.6081 2.3479
1750.00 1488.4497 1035.8065 34.6096 2.3335
1760.00 1488.5606 1035.8555 34.6110 2.3191
1770.00 1488.6762 1035.9042 34.6123 2.3058
1780.00 1488.7967 1035.9527 34.6135 2.2936
1790.00 1488.9172 1036.0012 34.6146 2.2813
1800.00 1489.0377 1036.0496 34.6158 2.2691
1810.00 1489.1582 1036.0981 34.6169 2.2569
1820.00 1489.2787 1036.1465 34.6181 2.2446
1830.00 1489.3992 1036.1950 34.6193 2.2324
1840.00 1489.5198 1036.2435 34.6204 2.2202
1850.00 1489.6403 1036.2919 34.6216 2.2080
1860.00 1489.7608 1036.3404 34.6227 2.1957
1870.00 1489.8813 1036.3888 34.6239 2.1835
1880.00 1490.0018 1036.4373 34.6251 2.1713
1890.00 1490.1223 1036.4857 34.6262 2.1590
1900.00 1490.2428 1036.5342 34.6274 2.1468
1910.00 1490.3633 1036.5827 34.6285 2.1346
1920.00 1490.4901 1036.6308 34.6296 2.1238
1930.00 1490.6213 1036.6787 34.6305 2.1139
1940.00 1490.7526 1036.7266 34.6314 2.1041
1950.00 1490.8839 1036.7745 34.6323 2.0943
1960.00 1491.0151 1036.8224 34.6332 2.0844
1970.00 1491.1464 1036.8703 34.6342 2.0746
1980.00 1491.2777 1036.9181 34.6351 2.0648
1990.00 1491.4090 1036.9660 34.6360 2.0550
2000.00 1491.5402 1037.0139 34.6369 2.0451
2010.00 1491.6715 1037.0618 34.6378 2.0353
2020.00 1491.8028 1037.1097 34.6387 2.0255
2030.00 1491.9340 1037.1576 34.6397 2.0156
2040.00 1492.0653 1037.2055 34.6406 2.0058
2050.00 1492.1966 1037.2534 34.6415 1.9960
2060.00 1492.3278 1037.3013 34.6424 1.9862
2070.00 1492.4591 1037.3492 34.6433 1.9763
2080.00 1492.5904 1037.3971 34.6443 1.9665
2090.00 1492.7279 1037.4446 34.6450 1.9580
2100.00 1492.8698 1037.4920 34.6458 1.9505
2110.00 1493.0116 1037.5393 34.6465 1.9430
2120.00 1493.1534 1037.5867 34.6472 1.9354
2130.00 1493.2952 1037.6340 34.6479 1.9279
2140.00 1493.4370 1037.6813 34.6486 1.9204
2150.00 1493.5788 1037.7287 34.6493 1.9128
2160.00 1493.7206 1037.7760 34.6500 1.9053
2170.00 1493.8624 1037.8234 34.6507 1.8977
2180.00 1494.0043 1037.8707 34.6514 1.8902
2190.00 1494.1461 1037.9180 34.6521 1.8827
2200.00 1494.2879 1037.9654 34.6528 1.8751
2210.00 1494.4297 1038.0127 34.6535 1.8676
2220.00 1494.5715 1038.0601 34.6543 1.8601
2230.00 1494.7133 1038.1074 34.6550 1.8525
2240.00 1494.8551 1038.1547 34.6557 1.8450
2250.00 1494.9969 1038.2021 34.6564 1.8374
2260.00 1495.1388 1038.2494 34.6571 1.8299
2270.00 1495.2806 1038.2968 34.6578 1.8224
2280.00 1495.4259 1038.3439 34.6584 1.8156
2290.00 1495.5772 1038.3907 34.6590 1.8100
2300.00 1495.7285 1038.4375 34.6595 1.8045
2310.00 1495.8797 1038.4844 34.6600 1.7989
2320.00 1496.0310 1038.5312 34.6606 1.7934
2330.00 1496.1823 1038.5780 34.6611 1.7879
2340.00 1496.3335 1038.6248 34.6616 1.7823
2350.00 1496.4848 1038.6716 34.6621 1.7768
2360.00 1496.6360 1038.7185 34.6627 1.7712
2370.00 1496.7873 1038.7653 34.6632 1.7657
2380.00 1496.9386 1038.8121 34.6637 1.7601
2390.00 1497.0898 1038.8589 34.6643 1.7546
2400.00 1497.2411 1038.9057 34.6648 1.7490
2410.00 1497.3924 1038.9525 34.6653 1.7435
2420.00 1497.5436 1038.9994 34.6659 1.7380
2430.00 1497.6949 1039.0462 34.6664 1.7324
2440.00 1497.8462 1039.0930 34.6669 1.7269
2450.00 1497.9974 1039.1398 34.6674 1.7213
2460.00 1498.1487 1039.1866 34.6680 1.7158
2470.00 1498.2999 1039.2335 34.6685 1.7102
2480.00 1498.4512 1039.2803 34.6690 1.7047
2490.00 1498.6025 1039.3271 34.6696 1.6991
2500.00 1498.7602 1039.3735 34.6700 1.6949
2510.00 1498.9188 1039.4199 34.6704 1.6908
2520.00 1499.0774 1039.4663 34.6707 1.6868
2530.00 1499.2360 1039.5126 34.6711 1.6827
2540.00 1499.3946 1039.5590 34.6715 1.6786
2550.00 1499.5532 1039.6054 34.6719 1.6745
2560.00 1499.7118 1039.6517 34.6723 1.6705
2570.00 1499.8704 1039.6981 34.6727 1.6664
2580.00 1500.0290 1039.7445 34.6731 1.6623
2590.00 1500.1876 1039.7908 34.6735 1.6583
2600.00 1500.3462 1039.8372 34.6738 1.6542
2610.00 1500.5048 1039.8836 34.6742 1.6501
2620.00 1500.6634 1039.9299 34.6746 1.6461
2630.00 1500.8220 1039.9763 34.6750 1.6420
2640.00 1500.9806 1040.0227 34.6754 1.6379
2650.00 1501.1393 1040.0690 34.6758 1.6339
2660.00 1501.2979 1040.1154 34.6762 1.6298
2670.00 1501.4565 1040.1618 34.6766 1.6257
2680.00 1501.6151 1040.2081 34.6769 1.6216
2690.00 1501.7737 1040.2545 34.6773 1.6176
2700.00 1501.9323 1040.3009 34.6777 1.6135
2710.00 1502.0909 1040.3472 34.6781 1.6094
2720.00 1502.2495 1040.3936 34.6785 1.6054
2730.00 1502.4085 1040.4400 34.6789 1.6014
2740.00 1502.5730 1040.4859 34.6791 1.5984
2750.00 1502.7374 1040.5319 34.6794 1.5954
2760.00 1502.9018 1040.5778 34.6797 1.5925
2770.00 1503.0662 1040.6238 34.6800 1.5895
2780.00 1503.2307 1040.6697 34.6802 1.5865
2790.00 1503.3951 1040.7157 34.6805 1.5836
2800.00 1503.5595 1040.7617 34.6808 1.5806
2810.00 1503.7239 1040.8076 34.6810 1.5776
2820.00 1503.8884 1040.8536 34.6813 1.5747
2830.00 1504.0528 1040.8995 34.6816 1.5717
2840.00 1504.2172 1040.9455 34.6818 1.5687
2850.00 1504.3816 1040.9914 34.6821 1.5657
2860.00 1504.5460 1041.0374 34.6824 1.5628
2870.00 1504.7105 1041.0834 34.6827 1.5598
2880.00 1504.8749 1041.1293 34.6829 1.5568
2890.00 1505.0393 1041.1753 34.6832 1.5539
2900.00 1505.2037 1041.2212 34.6835 1.5509
2910.00 1505.3682 1041.2672 34.6837 1.5479
2920.00 1505.5326 1041.3131 34.6840 1.5450
2930.00 1505.6970 1041.3591 34.6843 1.5420
2940.00 1505.8614 1041.4051 34.6846 1.5390
2950.00 1506.0259 1041.4510 34.6848 1.5360
2960.00 1506.1903 1041.4970 34.6851 1.5331
2970.00 1506.3547 1041.5429 34.6854 1.5301
2980.00 1506.5191 1041.5889 34.6856 1.5271
2990.00 1506.6836 1041.6348 34.6859 1.5242
3000.00 1506.8518 1041.6805 34.6861 1.5218
3010.00 1507.0201 1041.7261 34.6863 1.5195
3020.00 1507.1884 1041.7717 34.6865 1.5171
3030.00 1507.3567 1041.8173 34.6867 1.5148
3040.00 1507.5250 1041.8630 34.6869 1.5125
3050.00 1507.6932 1041.9086 34.6871 1.5101
3060.00 1507.8615 1041.9542 34.6873 1.5078
3070.00 1508.0298 1041.9998 34.6875 1.5054
3080.00 1508.1981 1042.0455 34.6877 1.5031
3090.00 1508.3664 1042.0911 34.6879 1.5008
3100.00 1508.5347 1042.1367 34.6881 1.4984
3110.00 1508.7030 1042.1823 34.6883 1.4961
3120.00 1508.8713 1042.2280 34.6885 1.4937
3130.00 1509.0396 1042.2736 34.6887 1.4914
3140.00 1509.2079 1042.3192 34.6889 1.4891
3150.00 1509.3762 1042.3648 34.6891 1.4867
3160.00 1509.5445 1042.4105 34.6893 1.4844
3170.00 1509.7128 1042.4561 34.6895 1.4820
3180.00 1509.8811 1042.5017 34.6897 1.4797
3190.00 1510.0494 1042.5473 34.6899 1.4774
3200.00 1510.2177 1042.5929 34.6901 1.4750
3210.00 1510.3860 1042.6386 34.6903 1.4727
3220.00 1510.5543 1042.6842 34.6905 1.4703
3230.00 1510.7226 1042.7298 34.6907 1.4680
3240.00 1510.8909 1042.7754 34.6909 1.4657
3250.00 1511.0592 1042.8211 34.6911 1.4633
3260.00 1511.2275 1042.8667 34.6913 1.4610
3270.00 1511.3958 1042.9123 34.6915 1.4586
3280.00 1511.5664 1042.9577 34.6917 1.4567
3290.00 1511.7386 1043.0030 34.6918 1.4549
3300.00 1511.9108 1043.0483 34.6920 1.4532
3310.00 1512.0830 1043.0936 34.6921 1.4515
3320.00 1512.2552 1043.1389 34.6923 1.4498
3330.00 1512.4274 1043.1842 34.6924 1.4480
3340.00 1512.5996 1043.2295 34.6926 1.4463
3350.00 1512.7719 1043.2748 34.6928 1.4446
3360.00 1512.9441 1043.3200 34.6929 1.4429
3370.00 1513.1163 1043.3653 34.6931 1.4411
3380.00 1513.2885 1043.4106 34.6932 1.4394
3390.00 1513.4607 1043.4559 34.6934 1.4377
3400.00 1513.6329 1043.5012 34.6935 1.4360
3410.00 1513.8051 1043.5465 34.6937 1.4342
3420.00 1513.9774 1043.5918 34.6938 1.4325
3430.00 1514.1496 1043.6370 34.6940 1.4308
3440.00 1514.3218 1043.6823 34.6941 1.4291
3450.00 1514.4940 1043.7276 34.6943 1.4273
3460.00 1514.6662 1043.7729 34.6944 1.4256
3470.00 1514.8384 1043.8182 34.6946 1.4239
3480.00 1515.0106 1043.8635 34.6948 1.4222
3490.00 1515.1829 1043.9088 34.6949 1.4204
3500.00 1515.3551 1043.9540 34.6951 1.4187
3510.00 1515.5273 1043.9993 34.6952 1.4170
3520.00 1515.6995 1044.0446 34.6954 1.4153
3530.00 1515.8717 1044.0899 34.6955 1.4136
3540.00 1516.0439 1044.1352 34.6957 1.4118
3550.00 1516.2161 1044.1805 34.6958 1.4101
3560.00 1516.3884 1044.2258 34.6960 1.4084
3570.00 1516.5606 1044.2711 34.6961 1.4067
3580.00 1516.7328 1044.3163 34.6963 1.4049
3590.00 1516.9122 1044.3611 34.6963 1.4046
3600.00 1517.0926 1044.4058 34.6963 1.4045
3610.00 1517.2731 1044.4505 34.6963 1.4043
3620.00 1517.4535 1044.4951 34.6964 1.4042
3630.00 1517.6340 1044.5398 34.6964 1.4041
3640.00 1517.8144 1044.5845 34.6964 1.4040
3650.00 1517.9948 1044.6292 34.6964 1.4038
3660.00 1518.1753 1044.6738 34.6964 1.4037
3670.00 1518.3557 1044.7185 34.6964 1.4036
3680.00 1518.5362 1044.7632 34.6964 1.4035
3690.00 1518.7166 1044.8079 34.6965 1.4033
3700.00 1518.8970 1044.8526 34.6965 1.4032
3710.00 1519.0775 1044.8972 34.6965 1.4031
3720.00 1519.2579 1044.9419 34.6965 1.4029
3730.00 1519.4384 1044.9866 34.6965 1.4028
3740.00 1519.6188 1045.0313 34.6965 1.4027
3750.00 1519.7993 1045.0760 34.6965 1.4026
3760.00 1519.9797 1045.1206 34.6966 1.4024
3770.00 1520.1601 1045.1653 34.6966 1.4023
3780.00 1520.3406 1045.2100 34.6966 1.4022
3790.00 1520.5210 1045.2547 34.6966 1.4021
3800.00 1520.7015 1045.2994 34.6966 1.4019
3810.00 1520.8819 1045.3440 34.6966 1.4018
3820.00 1521.0623 1045.3887 34.6966 1.4017
3830.00 1521.2428 1045.4334 34.6966 1.4015
3840.00 1521.4232 1045.4781 34.6967 1.4014
3850.00 1521.6037 1045.5228 34.6967 1.4013
3860.00 1521.7841 1045.5674 34.6967 1.4012
3870.00 1521.9645 1045.6121 34.6967 1.4010
3880.00 1522.1450 1045.6568 34.6967 1.4009
3890.00 1522.3254 1045.7015 34.6967 1.4008
3900.00 1522.5059 1045.7461 34.6967 1.4006
3910.00 1522.6863 1045.7908 34.6968 1.4005
3920.00 nan nan nan nan
3930.00 nan nan nan nan
3940.00 nan nan nan nan
3950.00 nan nan nan nan
3960.00 nan nan nan nan
3970.00 nan nan nan nan
3980.00 nan nan nan nan
3990.00 nan nan nan nan
4000.00 nan nan nan nan
4010.00 nan nan nan nan
4020.00 nan nan nan nan
4030.00 nan nan nan nan
4040.00 nan nan nan nan
4050.00 nan nan nan nan
4060.00 nan nan nan nan
4070.00 nan nan nan nan
4080.00 nan nan nan nan
4090.00 nan nan nan nan
4100.00 nan nan nan nan
4110.00 nan nan nan nan
4120.00 nan nan nan nan
4130.00 nan nan nan nan
4140.00 nan nan nan nan
4150.00 nan nan nan nan
4160.00 nan nan nan nan
4170.00 nan nan nan nan
4180.00 nan nan nan nan
4190.00 nan nan nan nan
4200.00 nan nan nan nan
4210.00 nan nan nan nan
4220.00 nan nan nan nan
4230.00 nan nan nan nan
4240.00 nan nan nan nan
4250.00 nan nan nan nan
4260.00 nan nan nan nan
4270.00 nan nan nan nan
4280.00 nan nan nan nan
4290.00 nan nan nan nan
4300.00 nan nan nan nan
4310.00 nan nan nan nan
4320.00 nan nan nan nan
4330.00 nan nan nan nan
4340.00 nan nan nan nan
4350.00 nan nan nan nan
4360.00 nan nan nan nan
4370.00 nan nan nan nan
4380.00 nan nan nan nan
4390.00 nan nan nan nan
4400.00 nan nan nan nan
4410.00 nan nan nan nan
4420.00 nan nan nan nan
4430.00 nan nan nan nan
4440.00 nan nan nan nan
4450.00 nan nan nan nan
4460.00 nan nan nan nan
4470.00 nan nan nan nan
4480.00 nan nan nan nan
4490.00 nan nan nan nan
4500.00 nan nan nan nan
4510.00 nan nan nan nan
4520.00 nan nan nan nan
4530.00 nan nan nan nan
4540.00 nan nan nan nan
4550.00 nan nan nan nan
4560.00 nan nan nan nan
4570.00 nan nan nan nan
4580.00 nan nan nan nan
4590.00 nan nan nan nan
4600.00 nan nan nan nan
4610.00 nan nan nan nan
4620.00 nan nan nan nan
4630.00 nan nan nan nan
4640.00 nan nan nan nan
4650.00 nan nan nan nan
4660.00 nan nan nan nan
4670.00 nan nan nan nan
4680.00 nan nan nan nan
4690.00 nan nan nan nan
4700.00 nan nan nan nan
4710.00 nan nan nan nan
4720.00 nan nan nan nan
4730.00 nan nan nan nan
4740.00 nan nan nan nan
4750.00 nan nan nan nan
4760.00 nan nan nan nan
4770.00 nan nan nan nan
4780.00 nan nan nan nan
4790.00 nan nan nan nan
4800.00 nan nan nan nan
4810.00 nan nan nan nan
4820.00 nan nan nan nan
4830.00 nan nan nan nan
4840.00 nan nan nan nan
4850.00 nan nan nan nan
4860.00 nan nan nan nan
4870.00 nan nan nan nan
4880.00 nan nan nan nan
4890.00 nan nan nan nan
4900.00 nan nan nan nan
4910.00 nan nan nan nan
4920.00 nan nan nan nan
4930.00 nan nan nan nan
4940.00 nan nan nan nan
4950.00 nan nan nan nan
4960.00 nan nan nan nan
4970.00 nan nan nan nan
4980.00 nan nan nan nan
4990.00 nan nan nan nan
5000.00 nan nan nan nan
5010.00 nan nan nan nan
5020.00 nan nan nan nan
5030.00 nan nan nan nan
5040.00 nan nan nan nan
5050.00 nan nan nan nan
5060.00 nan nan nan nan
5070.00 nan nan nan nan
5080.00 nan nan nan nan
5090.00 nan nan nan nan
5100.00 nan nan nan nan
5110.00 nan nan nan nan
5120.00 nan nan nan nan
5130.00 nan nan nan nan
5140.00 nan nan nan nan
5150.00 nan nan nan nan
5160.00 nan nan nan nan
5170.00 nan nan nan nan
5180.00 nan nan nan nan
5190.00 nan nan nan nan
5200.00 nan nan nan nan
5210.00 nan nan nan nan
5220.00 nan nan nan nan
5230.00 nan nan nan nan
5240.00 nan nan nan nan
5250.00 nan nan nan nan
5260.00 nan nan nan nan
5270.00 nan nan nan nan
5280.00 nan nan nan nan
5290.00 nan nan nan nan
5300.00 nan nan nan nan
5310.00 nan nan nan nan
5320.00 nan nan nan nan
5330.00 nan nan nan nan
5340.00 nan nan nan nan
5350.00 nan nan nan nan
5360.00 nan nan nan nan
5370.00 nan nan nan nan
5380.00 nan nan nan nan
5390.00 nan nan nan nan
5400.00 nan nan nan nan
5410.00 nan nan nan nan
5420.00 nan nan nan nan
5430.00 nan nan nan nan
5440.00 nan nan nan nan
5450.00 nan nan nan nan
5460.00 nan nan nan nan
5470.00 nan nan nan nan
5480.00 nan nan nan nan
5490.00 nan nan nan nan
5500.00 nan nan nan nan
5510.00 nan nan nan nan
5520.00 nan nan nan nan
5530.00 nan nan nan nan
5540.00 nan nan nan nan
5550.00 nan nan nan nan
5560.00 nan nan nan nan
5570.00 nan nan nan nan
5580.00 nan nan nan nan
5590.00 nan nan nan nan
5600.00 nan nan nan nan
5610.00 nan nan nan nan
5620.00 nan nan nan nan
5630.00 nan nan nan nan
5640.00 nan nan nan nan
5650.00 nan nan nan nan
5660.00 nan nan nan nan
5670.00 nan nan nan nan
5680.00 nan nan nan nan
5690.00 nan nan nan nan
5700.00 nan nan nan nan
5710.00 nan nan nan nan
5720.00 nan nan nan nan
5730.00 nan nan nan nan
5740.00 nan nan nan nan
5750.00 nan nan nan nan
5760.00 nan nan nan nan
5770.00 nan nan nan nan
5780.00 nan nan nan nan
5790.00 nan nan nan nan
5800.00 nan nan nan nan
5810.00 nan nan nan nan
5820.00 nan nan nan nan
5830.00 nan nan nan nan
5840.00 nan nan nan nan
5850.00 nan nan nan nan
5860.00 nan nan nan nan
5870.00 nan nan nan nan
5880.00 nan nan nan nan
5890.00 nan nan nan nan
5900.00 nan nan nan nan
5910.00 nan nan nan nan
5920.00 nan nan nan nan
5930.00 nan nan nan nan
5940.00 nan nan nan nan
5950.00 nan nan nan nan
5960.00 nan nan nan nan
5970.00 nan nan nan nan
5980.00 nan nan nan nan
5990.00 nan nan nan nan
6000.00 nan nan nan nan
6010.00 nan nan nan nan
6020.00 nan nan nan nan
6030.00 nan nan nan nan
6040.00 nan nan nan nan
6050.00 nan nan nan nan
6060.00 nan nan nan nan
6070.00 nan nan nan nan
6080.00 nan nan nan nan
6090.00 nan nan nan nan
6100.00 nan nan nan nan
6110.00 nan nan nan nan
6120.00 nan nan nan nan
6130.00 nan nan nan nan
6140.00 nan nan nan nan
6150.00 nan nan nan nan
6160.00 nan nan nan nan
6170.00 nan nan nan nan
6180.00 nan nan nan nan
6190.00 nan nan nan nan
6200.00 nan nan nan nan
6210.00 nan nan nan nan
6220.00 nan nan nan nan
6230.00 nan nan nan nan
6240.00 nan nan nan nan
6250.00 nan nan nan nan
6260.00 nan nan nan nan
6270.00 nan nan nan nan
6280.00 nan nan nan nan
6290.00 nan nan nan nan
6300.00 nan nan nan nan
6310.00 nan nan nan nan
6320.00 nan nan nan nan
6330.00 nan nan nan nan
6340.00 nan nan nan nan
6350.00 nan nan nan nan
6360.00 nan nan nan nan
6370.00 nan nan nan nan
6380.00 nan nan nan nan
6390.00 nan nan nan nan
6400.00 nan nan nan nan
6410.00 nan nan nan nan
6420.00 nan nan nan nan
6430.00 nan nan nan nan
6440.00 nan nan nan nan
6450.00 nan nan nan nan
6460.00 nan nan nan nan
6470.00 nan nan nan nan
6480.00 nan nan nan nan
6490.00 nan nan nan nan
6500.00 nan nan nan nan
6510.00 nan nan nan nan
6520.00 nan nan nan nan
6530.00 nan nan nan nan
6540.00 nan nan nan nan
6550.00 nan nan nan nan
6560.00 nan nan nan nan
6570.00 nan nan nan nan
6580.00 nan nan nan nan
6590.00 nan nan nan nan
6600.00 nan nan nan nan
6610.00 nan nan nan nan
6620.00 nan nan nan nan
6630.00 nan nan nan nan
6640.00 nan nan nan nan
6650.00 nan nan nan nan
6660.00 nan nan nan nan
6670.00 nan nan nan nan
6680.00 nan nan nan nan
6690.00 nan nan nan nan
6700.00 nan nan nan nan
6710.00 nan nan nan nan
6720.00 nan nan nan nan
6730.00 nan nan nan nan
6740.00 nan nan nan nan
6750.00 nan nan nan nan
6760.00 nan nan nan nan
6770.00 nan nan nan nan
6780.00 nan nan nan nan
6790.00 nan nan nan nan
6800.00 nan nan nan nan
6810.00 nan nan nan nan
6820.00 nan nan nan nan
6830.00 nan nan nan nan
6840.00 nan nan nan nan
6850.00 nan nan nan nan
6860.00 nan nan nan nan
6870.00 nan nan nan nan
6880.00 nan nan nan nan
6890.00 nan nan nan nan
6900.00 nan nan nan nan
6910.00 nan nan nan nan
6920.00 nan nan nan nan
6930.00 nan nan nan nan
6940.00 nan nan nan nan
6950.00 nan nan nan nan
6960.00 nan nan nan nan
6970.00 nan nan nan nan
6980.00 nan nan nan nan
6990.00 nan nan nan nan
7000.00 nan nan nan nan
7010.00 nan nan nan nan
7020.00 nan nan nan nan
7030.00 nan nan nan nan
7040.00 nan nan nan nan
7050.00 nan nan nan nan
7060.00 nan nan nan nan
7070.00 nan nan nan nan
7080.00 nan nan nan nan
7090.00 nan nan nan nan
7100.00 nan nan nan nan
7110.00 nan nan nan nan
7120.00 nan nan nan nan
7130.00 nan nan nan nan
7140.00 nan nan nan nan
7150.00 nan nan nan nan
7160.00 nan nan nan nan
7170.00 nan nan nan nan
7180.00 nan nan nan nan
7190.00 nan nan nan nan
7200.00 nan nan nan nan
7210.00 nan nan nan nan
7220.00 nan nan nan nan
7230.00 nan nan nan nan
7240.00 nan nan nan nan
7250.00 nan nan nan nan
7260.00 nan nan nan nan
7270.00 nan nan nan nan
7280.00 nan nan nan nan
7290.00 nan nan nan nan
7300.00 nan nan nan nan
7310.00 nan nan nan nan
7320.00 nan nan nan nan
7330.00 nan nan nan nan
7340.00 nan nan nan nan
7350.00 nan nan nan nan
7360.00 nan nan nan nan
7370.00 nan nan nan nan
7380.00 nan nan nan nan
7390.00 nan nan nan nan
7400.00 nan nan nan nan
7410.00 nan nan nan nan
7420.00 nan nan nan nan
7430.00 nan nan nan nan
7440.00 nan nan nan nan
7450.00 nan nan nan nan
7460.00 nan nan nan nan
7470.00 nan nan nan nan
7480.00 nan nan nan nan
7490.00 nan nan nan nan
7500.00 nan nan nan nan
7510.00 nan nan nan nan
7520.00 nan nan nan nan
7530.00 nan nan nan nan
7540.00 nan nan nan nan
7550.00 nan nan nan nan
7560.00 nan nan nan nan
7570.00 nan nan nan nan
7580.00 nan nan nan nan
7590.00 nan nan nan nan
7600.00 nan nan nan nan
7610.00 nan nan nan nan
7620.00 nan nan nan nan
7630.00 nan nan nan nan
7640.00 nan nan nan nan
7650.00 nan nan nan nan
7660.00 nan nan nan nan
7670.00 nan nan nan nan
7680.00 nan nan nan nan
7690.00 nan nan nan nan
7700.00 nan nan nan nan
7710.00 nan nan nan nan
7720.00 nan nan nan nan
7730.00 nan nan nan nan
7740.00 nan nan nan nan
7750.00 nan nan nan nan
7760.00 nan nan nan nan
7770.00 nan nan nan nan
7780.00 nan nan nan nan
7790.00 nan nan nan nan
7800.00 nan nan nan nan
7810.00 nan nan nan nan
7820.00 nan nan nan nan
7830.00 nan nan nan nan
7840.00 nan nan nan nan
7850.00 nan nan nan nan
7860.00 nan nan nan nan
7870.00 nan nan nan nan
7880.00 nan nan nan nan
7890.00 nan nan nan nan
7900.00 nan nan nan nan
7910.00 nan nan nan nan
7920.00 nan nan nan nan
7930.00 nan nan nan nan
7940.00 nan nan nan nan
7950.00 nan nan nan nan
7960.00 nan nan nan nan
7970.00 nan nan nan nan
7980.00 nan nan nan nan
7990.00 nan nan nan nan
